Task,Trial,Problem,Operation_answer,next_level.thisRepN,next_level.thisTrialN,next_level.thisN,next_level.thisIndex,next_letter.thisRepN,next_letter.thisTrialN,next_letter.thisN,next_letter.thisIndex,repeat_practice.thisRepN,repeat_practice.thisTrialN,repeat_practice.thisN,repeat_practice.thisIndex,trials.thisRepN,trials.thisTrialN,trials.thisN,trials.thisIndex,span_recall_prac.thisRepN,span_recall_prac.thisTrialN,span_recall_prac.thisN,span_recall_prac.thisIndex,span_size_prac.thisRepN,span_size_prac.thisTrialN,span_size_prac.thisN,span_size_prac.thisIndex,repeat_if_wrong_prac.thisRepN,repeat_if_wrong_prac.thisTrialN,repeat_if_wrong_prac.thisN,repeat_if_wrong_prac.thisIndex,span_recall.thisRepN,span_recall.thisTrialN,span_recall.thisN,span_recall.thisIndex,span_size.thisRepN,span_size.thisTrialN,span_size.thisN,span_size.thisIndex,repeat_if_wrong.thisRepN,repeat_if_wrong.thisTrialN,repeat_if_wrong.thisN,repeat_if_wrong.thisIndex,instructions_2.started,instructions_2.stopped,key_resp_4.keys,key_resp_4.rt,key_resp_4.started,key_resp_4.stopped,text_2.started,text_2.stopped,simple_recall,key_resp_5.keys,key_resp_5.rt,key_resp_5.started,key_resp_5.stopped,text_feedback.started,text_feedback.stopped,simple_recall_corr,simple_recall_corrkeys,instructions_3.started,instructions_3.stopped,instructions.started,instructions.stopped,key_resp_2.keys,key_resp_2.rt,key_resp_2.started,key_resp_2.stopped,digit_answer,operation.started,operation.stopped,key_resp.keys,key_resp.corr,key_resp.rt,key_resp.started,key_resp.stopped,operation_feedback.started,operation_feedback.stopped,RT_list,instructions_8.started,instructions_8.stopped,feedback_msg.started,feedback_msg.stopped,processing_score,sumRT,meanRT,sumdiff,sd,RT,feedback_msg_2.started,feedback_msg_2.stopped,key_resp_3.keys,key_resp_3.rt,key_resp_3.started,key_resp_3.stopped,instructions_4.started,instructions_4.stopped,key_resp_6.keys,key_resp_6.rt,key_resp_6.started,key_resp_6.stopped,operation_3.started,operation_3.stopped,key_resp_11.keys,key_resp_11.corr,key_resp_11.rt,key_resp_11.started,key_resp_11.stopped,operation_feedback_2.started,operation_feedback_2.stopped,instructions_9.started,instructions_9.stopped,operation_correct,feedback_msg_4.started,feedback_msg_4.stopped,operation_4.started,operation_4.stopped,text_3.started,text_3.stopped,complex_recall_prac,key_resp_9.keys,key_resp_9.corr,key_resp_9.rt,key_resp_9.started,key_resp_9.stopped,text_feedback_3.started,text_feedback_3.stopped,instructions_6.started,instructions_6.stopped,complex_prac_corr,feedback_msg_3.started,feedback_msg_3.stopped,instructions_7.started,instructions_7.stopped,key_resp_10.keys,key_resp_10.rt,key_resp_10.started,key_resp_10.stopped,operation_2.started,operation_2.stopped,key_resp_7.keys,key_resp_7.corr,key_resp_7.rt,key_resp_7.started,key_resp_7.stopped,operation_feedback_3.started,operation_feedback_3.stopped,instructions_10.started,instructions_10.stopped,feedback_msg_5.started,feedback_msg_5.stopped,operation_5.started,operation_5.stopped,text.started,text.stopped,complex_recall,key_resp_8.keys,key_resp_8.corr,key_resp_8.rt,key_resp_8.started,key_resp_8.stopped,text_feedback_2.started,text_feedback_2.stopped,complex_recall_corr,complex_recall_corrkeys,instructions_5.started,instructions_5.stopped,finish.started,finish.stopped,key_resp_12.keys,key_resp_12.rt,key_resp_12.started,key_resp_12.stopped,participant,session,date,expName,psychopyVersion,frameRate,
,,,,,,,,,,,,,,,,,,,,,,,,,,,,,,,,,,,,,,,,,,,,16.172663300065324,None,space,30.179465100052767,16.172663300065324,None,,,,,,,,,,,,,,,,,,,,,,,,,,,,,,,,,,,,,,,,,,,,,,,,,,,,,,,,,,,,,,,,,,,,,,,,,,,,,,,,,,,,,,,,,,,,,,,,,,,,,,,,,,,,,,,,,,,,,,,,,,,,,P1,001,2019_Nov_12_1124,test_final,3.1.5,60.01925418360969,
,,,,0,0,0,0,0,0,0,0,,,,,,,,,,,,,,,,,,,,,,,,,,,,,,,,,,,,,,,46.91877630003728,None,,,,,,,,,,,,,,,,,,,,,,,,,,,,,,,,,,,,,,,,,,,,,,,,,,,,,,,,,,,,,,,,,,,,,,,,,,,,,,,,,,,,,,,,,,,,,,,,,,,,,,,,,,,,,,,,,,,,,,,,,,,P1,001,2019_Nov_12_1124,test_final,3.1.5,60.01925418360969,
,,,,0,0,0,0,1,0,1,0,,,,,,,,,,,,,,,,,,,,,,,,,,,,,,,,,,,,,,,48.20090270007495,None,,,,,,,,,,,,,,,,,,,,,,,,,,,,,,,,,,,,,,,,,,,,,,,,,,,,,,,,,,,,,,,,,,,,,,,,,,,,,,,,,,,,,,,,,,,,,,,,,,,,,,,,,,,,,,,,,,,,,,,,,,,P1,001,2019_Nov_12_1124,test_final,3.1.5,60.01925418360969,
,,,,1,0,1,0,0,0,0,0,,,,,,,,,,,,,,,,,,,,,,,,,,,,,,,,,,,,,,,53.595752499997616,None,xl,"['x', 'l']","[1.6942451000213623, 2.59895580005832, 3.526360600022599]",49.49965640006121,None,49.49965640006121,None,1,XL,49.49965640006121,None,,,,,,,,,,,,,,,,,,,,,,,,,,,,,,,,,,,,,,,,,,,,,,,,,,,,,,,,,,,,,,,,,,,,,,,,,,,,,,,,,,,,,,,,,,,,,,,,,,,,,,,,,,,,,,,,P1,001,2019_Nov_12_1124,test_final,3.1.5,60.01925418360969,
,,,,1,0,1,0,1,0,1,0,,,,,,,,,,,,,,,,,,,,,,,,,,,,,,,,,,,,,,,54.89432119997218,54.38292810006533,,,,,,,,,,,,,,,,,,,,,,,,,,,,,,,,,,,,,,,,,,,,,,,,,,,,,,,,,,,,,,,,,,,,,,,,,,,,,,,,,,,,,,,,,,,,,,,,,,,,,,,,,,,,,,,,,,,,,,,,,,,P1,001,2019_Nov_12_1124,test_final,3.1.5,60.01925418360969,
,,,,2,0,2,0,0,0,0,0,,,,,,,,,,,,,,,,,,,,,,,,,,,,,,,,,,,,,,,58.69053000002168,None,kn,"['k', 'n']","[1.1798792000627145, 1.4710143000120297, 1.9453218000708148]",56.1931436000159,None,56.1931436000159,None,1,KN,56.1931436000159,None,,,,,,,,,,,,,,,,,,,,,,,,,,,,,,,,,,,,,,,,,,,,,,,,,,,,,,,,,,,,,,,,,,,,,,,,,,,,,,,,,,,,,,,,,,,,,,,,,,,,,,,,,,,,,,,,P1,001,2019_Nov_12_1124,test_final,3.1.5,60.01925418360969,
,,,,2,0,2,0,1,0,1,0,,,,,,,,,,,,,,,,,,,,,,,,,,,,,,,,,,,,,,,59.98935970000457,59.47882670001127,,,,,,,,,,,,,,,,,,,,,,,,,,,,,,,,,,,,,,,,,,,,,,,,,,,,,,,,,,,,,,,,,,,,,,,,,,,,,,,,,,,,,,,,,,,,,,,,,,,,,,,,,,,,,,,,,,,,,,,,,,,P1,001,2019_Nov_12_1124,test_final,3.1.5,60.01925418360969,
,,,,2,0,2,0,2,0,2,0,,,,,,,,,,,,,,,,,,,,,,,,,,,,,,,,,,,,,,,61.288082999992184,60.771598499966785,,,,,,,,,,,,,,,,,,,,,,,,,,,,,,,,,,,,,,,,,,,,,,,,,,,,,,,,,,,,,,,,,,,,,,,,,,,,,,,,,,,,,,,,,,,,,,,,,,,,,,,,,,,,,,,,,,,,,,,,,,,P1,001,2019_Nov_12_1124,test_final,3.1.5,60.01925418360969,
,,,,3,0,3,0,0,0,0,0,,,,,,,,,,,,,,,,,,,,,,,,,,,,,,,,,,,,,,,65.81666460004635,None,hvz,"['h', 'v', 'z']","[1.4024623000295833, 1.7932620000792667, 2.227876399992965, 2.6772605000296608]",62.58707600005437,None,62.58707600005437,None,1,HVZ,62.58707600005437,None,,,,,,,,,,,,,,,,,,,,,,,,,,,,,,,,,,,,,,,,,,,,,,,,,,,,,,,,,,,,,,,,,,,,,,,,,,,,,,,,,,,,,,,,,,,,,,,,,,,,,,,,,,,,,,,,P1,001,2019_Nov_12_1124,test_final,3.1.5,60.01925418360969,
,,,,3,0,3,0,1,0,1,0,,,,,,,,,,,,,,,,,,,,,,,,,,,,,,,,,,,,,,,67.1324600999942,None,,,,,,,,,,,,,,,,,,,,,,,,,,,,,,,,,,,,,,,,,,,,,,,,,,,,,,,,,,,,,,,,,,,,,,,,,,,,,,,,,,,,,,,,,,,,,,,,,,,,,,,,,,,,,,,,,,,,,,,,,,,P1,001,2019_Nov_12_1124,test_final,3.1.5,60.01925418360969,
,,,,3,0,3,0,2,0,2,0,,,,,,,,,,,,,,,,,,,,,,,,,,,,,,,,,,,,,,,68.43106119998265,None,,,,,,,,,,,,,,,,,,,,,,,,,,,,,,,,,,,,,,,,,,,,,,,,,,,,,,,,,,,,,,,,,,,,,,,,,,,,,,,,,,,,,,,,,,,,,,,,,,,,,,,,,,,,,,,,,,,,,,,,,,,P1,001,2019_Nov_12_1124,test_final,3.1.5,60.01925418360969,
,,,,4,0,4,0,0,0,0,0,,,,,,,,,,,,,,,,,,,,,,,,,,,,,,,,,,,,,,,72.29391860007308,None,rhj,"['r', 'h', 'j']","[1.08386769995559, 1.3167908999603242, 1.574934999924153, 2.0125262999208644]",69.7300962000154,None,69.7300962000154,None,1,RHJ,69.7300962000154,None,,,,,,,,,,,,,,,,,,,,,,,,,,,,,,,,,,,,,,,,,,,,,,,,,,,,,,,,,,,,,,,,,,,,,,,,,,,,,,,,,,,,,,,,,,,,,,,,,,,,,,,,,,,,,,,,P1,001,2019_Nov_12_1124,test_final,3.1.5,60.01925418360969,
,,,,4,0,4,0,1,0,1,0,,,,,,,,,,,,,,,,,,,,,,,,,,,,,,,,,,,,,,,73.6094534000149,None,,,,,,,,,,,,,,,,,,,,,,,,,,,,,,,,,,,,,,,,,,,,,,,,,,,,,,,,,,,,,,,,,,,,,,,,,,,,,,,,,,,,,,,,,,,,,,,,,,,,,,,,,,,,,,,,,,,,,,,,,,,P1,001,2019_Nov_12_1124,test_final,3.1.5,60.01925418360969,
,,,,4,0,4,0,2,0,2,0,,,,,,,,,,,,,,,,,,,,,,,,,,,,,,,,,,,,,,,74.9080272000283,None,,,,,,,,,,,,,,,,,,,,,,,,,,,,,,,,,,,,,,,,,,,,,,,,,,,,,,,,,,,,,,,,,,,,,,,,,,,,,,,,,,,,,,,,,,,,,,,,,,,,,,,,,,,,,,,,,,,,,,,,,,,P1,001,2019_Nov_12_1124,test_final,3.1.5,60.01925418360969,
,,,,4,0,4,0,3,0,3,0,,,,,,,,,,,,,,,,,,,,,,,,,,,,,,,,,,,,,,,76.20671549998224,None,,,,,,,,,,,,,,,,,,,,,,,,,,,,,,,,,,,,,,,,,,,,,,,,,,,,,,,,,,,,,,,,,,,,,,,,,,,,,,,,,,,,,,,,,,,,,,,,,,,,,,,,,,,,,,,,,,,,,,,,,,,P1,001,2019_Nov_12_1124,test_final,3.1.5,60.01925418360969,
,,,,5,0,5,0,0,0,0,0,,,,,,,,,,,,,,,,,,,,,,,,,,,,,,,,,,,,,,,80.45236510003451,None,vlns,"['v', 'l', 'n', 's']","[0.934493999928236, 1.2334247999824584, 1.6177591999294236, 2.015409499988891, 2.3878797999350354]",77.5056528999703,None,77.5056528999703,None,1,VLNS,77.5056528999703,None,,,,,,,,,,,,,,,,,,,,,,,,,,,,,,,,,,,,,,,,,,,,,,,,,,,,,,,,,,,,,,,,,,,,,,,,,,,,,,,,,,,,,,,,,,,,,,,,,,,,,,,,,,,,,,,,P1,001,2019_Nov_12_1124,test_final,3.1.5,60.01925418360969,
,,,,5,0,5,0,1,0,1,0,,,,,,,,,,,,,,,,,,,,,,,,,,,,,,,,,,,,,,,81.76800649997313,None,,,,,,,,,,,,,,,,,,,,,,,,,,,,,,,,,,,,,,,,,,,,,,,,,,,,,,,,,,,,,,,,,,,,,,,,,,,,,,,,,,,,,,,,,,,,,,,,,,,,,,,,,,,,,,,,,,,,,,,,,,,P1,001,2019_Nov_12_1124,test_final,3.1.5,60.01925418360969,
,,,,5,0,5,0,2,0,2,0,,,,,,,,,,,,,,,,,,,,,,,,,,,,,,,,,,,,,,,83.0667897000676,None,,,,,,,,,,,,,,,,,,,,,,,,,,,,,,,,,,,,,,,,,,,,,,,,,,,,,,,,,,,,,,,,,,,,,,,,,,,,,,,,,,,,,,,,,,,,,,,,,,,,,,,,,,,,,,,,,,,,,,,,,,,P1,001,2019_Nov_12_1124,test_final,3.1.5,60.01925418360969,
,,,,5,0,5,0,3,0,3,0,,,,,,,,,,,,,,,,,,,,,,,,,,,,,,,,,,,,,,,84.3653164000716,None,,,,,,,,,,,,,,,,,,,,,,,,,,,,,,,,,,,,,,,,,,,,,,,,,,,,,,,,,,,,,,,,,,,,,,,,,,,,,,,,,,,,,,,,,,,,,,,,,,,,,,,,,,,,,,,,,,,,,,,,,,,P1,001,2019_Nov_12_1124,test_final,3.1.5,60.01925418360969,
,,,,6,0,6,0,0,0,0,0,,,,,,,,,,,,,,,,,,,,,,,,,,,,,,,,,,,,,,,88.6446469000075,None,rtqs,"['r', 't', 'q', 's']","[0.9357119000051171, 1.265075600007549, 1.6043729999801144, 2.06778249994386, 2.417995599913411]",85.66424139996525,None,85.66424139996525,None,1,RTQS,85.66424139996525,None,,,,,,,,,,,,,,,,,,,,,,,,,,,,,,,,,,,,,,,,,,,,,,,,,,,,,,,,,,,,,,,,,,,,,,,,,,,,,,,,,,,,,,,,,,,,,,,,,,,,,,,,,,,,,,,,P1,001,2019_Nov_12_1124,test_final,3.1.5,60.01925418360969,
,,,,6,0,6,0,1,0,1,0,,,,,,,,,,,,,,,,,,,,,,,,,,,,,,,,,,,,,,,89.95990770007484,None,,,,,,,,,,,,,,,,,,,,,,,,,,,,,,,,,,,,,,,,,,,,,,,,,,,,,,,,,,,,,,,,,,,,,,,,,,,,,,,,,,,,,,,,,,,,,,,,,,,,,,,,,,,,,,,,,,,,,,,,,,,P1,001,2019_Nov_12_1124,test_final,3.1.5,60.01925418360969,
,,,,6,0,6,0,2,0,2,0,,,,,,,,,,,,,,,,,,,,,,,,,,,,,,,,,,,,,,,91.25864760007244,None,,,,,,,,,,,,,,,,,,,,,,,,,,,,,,,,,,,,,,,,,,,,,,,,,,,,,,,,,,,,,,,,,,,,,,,,,,,,,,,,,,,,,,,,,,,,,,,,,,,,,,,,,,,,,,,,,,,,,,,,,,,P1,001,2019_Nov_12_1124,test_final,3.1.5,60.01925418360969,
,,,,6,0,6,0,3,0,3,0,,,,,,,,,,,,,,,,,,,,,,,,,,,,,,,,,,,,,,,92.55753420002293,None,,,,,,,,,,,,,,,,,,,,,,,,,,,,,,,,,,,,,,,,,,,,,,,,,,,,,,,,,,,,,,,,,,,,,,,,,,,,,,,,,,,,,,,,,,,,,,,,,,,,,,,,,,,,,,,,,,,,,,,,,,,P1,001,2019_Nov_12_1124,test_final,3.1.5,60.01925418360969,
,,,,6,0,6,0,4,0,4,0,,,,,,,,,,,,,,,,,,,,,,,,,,,,,,,,,,,,,,,93.856288400013,None,,,,,,,,,,,,,,,,,,,,,,,,,,,,,,,,,,,,,,,,,,,,,,,,,,,,,,,,,,,,,,,,,,,,,,,,,,,,,,,,,,,,,,,,,,,,,,,,,,,,,,,,,,,,,,,,,,,,,,,,,,,P1,001,2019_Nov_12_1124,test_final,3.1.5,60.01925418360969,
,,,,7,0,7,0,0,0,0,0,,,,,,,,,,,,,,,,,,,,,,,,,,,,,,,,,,,,,,,98.66808980004862,None,vkxsn,"['v', 'k', 'x', 's', 'n']","[0.9516760000260547, 1.2740654000081122, 1.6633317000232637, 2.0139009000267833, 2.357401499990374, 2.882162200054154]",95.15500310005154,None,95.15500310005154,None,1,VKXSN,95.15500310005154,None,,,,,,,,,,,,,,,,,,,,,,,,,,,,,,,,,,,,,,,,,,,,,,,,,,,,,,,,,,,,,,,,,,,,,,,,,,,,,,,,,,,,,,,,,,,,,,,,,,,,,,,,,,,,,,,,P1,001,2019_Nov_12_1124,test_final,3.1.5,60.01925418360969,
,,,,7,0,7,0,1,0,1,0,,,,,,,,,,,,,,,,,,,,,,,,,,,,,,,,,,,,,,,99.966757300077,None,,,,,,,,,,,,,,,,,,,,,,,,,,,,,,,,,,,,,,,,,,,,,,,,,,,,,,,,,,,,,,,,,,,,,,,,,,,,,,,,,,,,,,,,,,,,,,,,,,,,,,,,,,,,,,,,,,,,,,,,,,,P1,001,2019_Nov_12_1124,test_final,3.1.5,60.01925418360969,
,,,,7,0,7,0,2,0,2,0,,,,,,,,,,,,,,,,,,,,,,,,,,,,,,,,,,,,,,,101.2655307999812,None,,,,,,,,,,,,,,,,,,,,,,,,,,,,,,,,,,,,,,,,,,,,,,,,,,,,,,,,,,,,,,,,,,,,,,,,,,,,,,,,,,,,,,,,,,,,,,,,,,,,,,,,,,,,,,,,,,,,,,,,,,,P1,001,2019_Nov_12_1124,test_final,3.1.5,60.01925418360969,
,,,,7,0,7,0,3,0,3,0,,,,,,,,,,,,,,,,,,,,,,,,,,,,,,,,,,,,,,,102.56395280000288,102.04785380000249,,,,,,,,,,,,,,,,,,,,,,,,,,,,,,,,,,,,,,,,,,,,,,,,,,,,,,,,,,,,,,,,,,,,,,,,,,,,,,,,,,,,,,,,,,,,,,,,,,,,,,,,,,,,,,,,,,,,,,,,,,,P1,001,2019_Nov_12_1124,test_final,3.1.5,60.01925418360969,
,,,,7,0,7,0,4,0,4,0,,,,,,,,,,,,,,,,,,,,,,,,,,,,,,,,,,,,,,,103.86306960007641,103.3466493000742,,,,,,,,,,,,,,,,,,,,,,,,,,,,,,,,,,,,,,,,,,,,,,,,,,,,,,,,,,,,,,,,,,,,,,,,,,,,,,,,,,,,,,,,,,,,,,,,,,,,,,,,,,,,,,,,,,,,,,,,,,,P1,001,2019_Nov_12_1124,test_final,3.1.5,60.01925418360969,
,,,,8,0,8,0,0,0,0,0,,,,,,,,,,,,,,,,,,,,,,,,,,,,,,,,,,,,,,,111.23907650006004,None,hvkxq,"['h', 'v', 'k', 'x', 'q']","[1.0800802999874577, 1.4218532999511808, 4.7177691999822855, 4.930301799904555, 5.205078999977559, 5.520640500006266]",105.16200160002336,None,105.16200160002336,None,1,HVKXQ,105.16200160002336,None,,,,,,,,,,,,,,,,,,,,,,,,,,,,,,,,,,,,,,,,,,,,,,,,,,,,,,,,,,,,,,,,,,,,,,,,,,,,,,,,,,,,,,,,,,,,,,,,,,,,,,,,,,,,,,,,P1,001,2019_Nov_12_1124,test_final,3.1.5,60.01925418360969,
,,,,8,0,8,0,1,0,1,0,,,,,,,,,,,,,,,,,,,,,,,,,,,,,,,,,,,,,,,112.5379562000744,112.03221700002905,,,,,,,,,,,,,,,,,,,,,,,,,,,,,,,,,,,,,,,,,,,,,,,,,,,,,,,,,,,,,,,,,,,,,,,,,,,,,,,,,,,,,,,,,,,,,,,,,,,,,,,,,,,,,,,,,,,,,,,,,,,P1,001,2019_Nov_12_1124,test_final,3.1.5,60.01925418360969,
,,,,8,0,8,0,2,0,2,0,,,,,,,,,,,,,,,,,,,,,,,,,,,,,,,,,,,,,,,113.8365512000164,113.32005760003813,,,,,,,,,,,,,,,,,,,,,,,,,,,,,,,,,,,,,,,,,,,,,,,,,,,,,,,,,,,,,,,,,,,,,,,,,,,,,,,,,,,,,,,,,,,,,,,,,,,,,,,,,,,,,,,,,,,,,,,,,,,P1,001,2019_Nov_12_1124,test_final,3.1.5,60.01925418360969,
,,,,8,0,8,0,3,0,3,0,,,,,,,,,,,,,,,,,,,,,,,,,,,,,,,,,,,,,,,115.1354113999987,114.61897569999564,,,,,,,,,,,,,,,,,,,,,,,,,,,,,,,,,,,,,,,,,,,,,,,,,,,,,,,,,,,,,,,,,,,,,,,,,,,,,,,,,,,,,,,,,,,,,,,,,,,,,,,,,,,,,,,,,,,,,,,,,,,P1,001,2019_Nov_12_1124,test_final,3.1.5,60.01925418360969,
,,,,8,0,8,0,4,0,4,0,,,,,,,,,,,,,,,,,,,,,,,,,,,,,,,,,,,,,,,116.43418219999876,115.91835280007217,,,,,,,,,,,,,,,,,,,,,,,,,,,,,,,,,,,,,,,,,,,,,,,,,,,,,,,,,,,,,,,,,,,,,,,,,,,,,,,,,,,,,,,,,,,,,,,,,,,,,,,,,,,,,,,,,,,,,,,,,,,P1,001,2019_Nov_12_1124,test_final,3.1.5,60.01925418360969,
,,,,8,0,8,0,5,0,5,0,,,,,,,,,,,,,,,,,,,,,,,,,,,,,,,,,,,,,,,117.7327950000763,117.2186486000428,,,,,,,,,,,,,,,,,,,,,,,,,,,,,,,,,,,,,,,,,,,,,,,,,,,,,,,,,,,,,,,,,,,,,,,,,,,,,,,,,,,,,,,,,,,,,,,,,,,,,,,,,,,,,,,,,,,,,,,,,,,P1,001,2019_Nov_12_1124,test_final,3.1.5,60.01925418360969,
,,,,9,0,9,0,0,0,0,0,,,,,,,,,,,,,,,,,,,,,,,,,,,,,,,,,,,,,,,126.17407670000102,None,nlvhqt,"['n', 'l', 'v', 'h', 'q', 't']","[1.1704932999564335, 2.424394299974665, 4.744976000045426, 5.536708700004965, 5.858289600000717, 5.997881600051187, 6.576722500030883]",119.03162909997627,None,119.03162909997627,None,1,NLVHQT,119.03162909997627,None,,,,,,,,,,,,,,,,,,,,,,,,,,,,,,,,,,,,,,,,,,,,,,,,,,,,,,,,,,,,,,,,,,,,,,,,,,,,,,,,,,,,,,,,,,,,,,,,,,,,,,,,,,,,,,,,P1,001,2019_Nov_12_1124,test_final,3.1.5,60.01925418360969,
,,,,9,0,9,0,1,0,1,0,,,,,,,,,,,,,,,,,,,,,,,,,,,,,,,,,,,,,,,127.47314590006135,126.95671000005677,,,,,,,,,,,,,,,,,,,,,,,,,,,,,,,,,,,,,,,,,,,,,,,,,,,,,,,,,,,,,,,,,,,,,,,,,,,,,,,,,,,,,,,,,,,,,,,,,,,,,,,,,,,,,,,,,,,,,,,,,,,P1,001,2019_Nov_12_1124,test_final,3.1.5,60.01925418360969,
,,,,9,0,9,0,2,0,2,0,,,,,,,,,,,,,,,,,,,,,,,,,,,,,,,,,,,,,,,128.77183980005793,128.25537979998626,,,,,,,,,,,,,,,,,,,,,,,,,,,,,,,,,,,,,,,,,,,,,,,,,,,,,,,,,,,,,,,,,,,,,,,,,,,,,,,,,,,,,,,,,,,,,,,,,,,,,,,,,,,,,,,,,,,,,,,,,,,P1,001,2019_Nov_12_1124,test_final,3.1.5,60.01925418360969,
,,,,9,0,9,0,3,0,3,0,,,,,,,,,,,,,,,,,,,,,,,,,,,,,,,,,,,,,,,130.07062440004665,129.55412680003792,,,,,,,,,,,,,,,,,,,,,,,,,,,,,,,,,,,,,,,,,,,,,,,,,,,,,,,,,,,,,,,,,,,,,,,,,,,,,,,,,,,,,,,,,,,,,,,,,,,,,,,,,,,,,,,,,,,,,,,,,,,P1,001,2019_Nov_12_1124,test_final,3.1.5,60.01925418360969,
,,,,9,0,9,0,4,0,4,0,,,,,,,,,,,,,,,,,,,,,,,,,,,,,,,,,,,,,,,131.36938920000102,130.85283860005438,,,,,,,,,,,,,,,,,,,,,,,,,,,,,,,,,,,,,,,,,,,,,,,,,,,,,,,,,,,,,,,,,,,,,,,,,,,,,,,,,,,,,,,,,,,,,,,,,,,,,,,,,,,,,,,,,,,,,,,,,,,P1,001,2019_Nov_12_1124,test_final,3.1.5,60.01925418360969,
,,,,9,0,9,0,5,0,5,0,,,,,,,,,,,,,,,,,,,,,,,,,,,,,,,,,,,,,,,132.66805420001037,132.1516387000447,,,,,,,,,,,,,,,,,,,,,,,,,,,,,,,,,,,,,,,,,,,,,,,,,,,,,,,,,,,,,,,,,,,,,,,,,,,,,,,,,,,,,,,,,,,,,,,,,,,,,,,,,,,,,,,,,,,,,,,,,,,P1,001,2019_Nov_12_1124,test_final,3.1.5,60.01925418360969,
,,,,10,0,10,0,0,0,0,0,,,,,,,,,,,,,,,,,,,,,,,,,,,,,,,,,,,,,,,137.91305249999277,None,zsnlth,"['z', 's', 'n', 'l', 't', 'h']","[1.1955025000497699, 1.5016818000003695, 1.8904218000825495, 2.1515286000212654, 2.5908893999876454, 2.7867244000080973, 3.3887739999918267]",133.9669387000613,None,133.9669387000613,None,1,ZSNLTH,133.9669387000613,None,,,,,,,,,,,,,,,,,,,,,,,,,,,,,,,,,,,,,,,,,,,,,,,,,,,,,,,,,,,,,,,,,,,,,,,,,,,,,,,,,,,,,,,,,,,,,,,,,,,,,,,,,,,,,,,,P1,001,2019_Nov_12_1124,test_final,3.1.5,60.01925418360969,
,,,,10,0,10,0,1,0,1,0,,,,,,,,,,,,,,,,,,,,,,,,,,,,,,,,,,,,,,,139.2279810999753,None,,,,,,,,,,,,,,,,,,,,,,,,,,,,,,,,,,,,,,,,,,,,,,,,,,,,,,,,,,,,,,,,,,,,,,,,,,,,,,,,,,,,,,,,,,,,,,,,,,,,,,,,,,,,,,,,,,,,,,,,,,,P1,001,2019_Nov_12_1124,test_final,3.1.5,60.01925418360969,
,,,,10,0,10,0,2,0,2,0,,,,,,,,,,,,,,,,,,,,,,,,,,,,,,,,,,,,,,,140.52720979996957,None,,,,,,,,,,,,,,,,,,,,,,,,,,,,,,,,,,,,,,,,,,,,,,,,,,,,,,,,,,,,,,,,,,,,,,,,,,,,,,,,,,,,,,,,,,,,,,,,,,,,,,,,,,,,,,,,,,,,,,,,,,,P1,001,2019_Nov_12_1124,test_final,3.1.5,60.01925418360969,
,,,,10,0,10,0,3,0,3,0,,,,,,,,,,,,,,,,,,,,,,,,,,,,,,,,,,,,,,,141.82591570005752,None,,,,,,,,,,,,,,,,,,,,,,,,,,,,,,,,,,,,,,,,,,,,,,,,,,,,,,,,,,,,,,,,,,,,,,,,,,,,,,,,,,,,,,,,,,,,,,,,,,,,,,,,,,,,,,,,,,,,,,,,,,,P1,001,2019_Nov_12_1124,test_final,3.1.5,60.01925418360969,
,,,,10,0,10,0,4,0,4,0,,,,,,,,,,,,,,,,,,,,,,,,,,,,,,,,,,,,,,,143.1248039000202,None,,,,,,,,,,,,,,,,,,,,,,,,,,,,,,,,,,,,,,,,,,,,,,,,,,,,,,,,,,,,,,,,,,,,,,,,,,,,,,,,,,,,,,,,,,,,,,,,,,,,,,,,,,,,,,,,,,,,,,,,,,,P1,001,2019_Nov_12_1124,test_final,3.1.5,60.01925418360969,
,,,,10,0,10,0,5,0,5,0,,,,,,,,,,,,,,,,,,,,,,,,,,,,,,,,,,,,,,,144.42347769998014,None,,,,,,,,,,,,,,,,,,,,,,,,,,,,,,,,,,,,,,,,,,,,,,,,,,,,,,,,,,,,,,,,,,,,,,,,,,,,,,,,,,,,,,,,,,,,,,,,,,,,,,,,,,,,,,,,,,,,,,,,,,,P1,001,2019_Nov_12_1124,test_final,3.1.5,60.01925418360969,
,,,,10,0,10,0,6,0,6,0,,,,,,,,,,,,,,,,,,,,,,,,,,,,,,,,,,,,,,,145.72168299998157,None,,,,,,,,,,,,,,,,,,,,,,,,,,,,,,,,,,,,,,,,,,,,,,,,,,,,,,,,,,,,,,,,,,,,,,,,,,,,,,,,,,,,,,,,,,,,,,,,,,,,,,,,,,,,,,,,,,,,,,,,,,,P1,001,2019_Nov_12_1124,test_final,3.1.5,60.01925418360969,
,,,,11,0,11,0,0,0,0,0,,,,,,,,,,,,,,,,,,,,,,,,,,,,,,,,,,,,,,,153.26472870004363,None,lhxqjz,"['l', 'h', 'x', 'q', 'j', 'z']","[0.8605097000254318, 1.4494243999943137, 2.924651699955575, 4.055136000039056, 4.621565200039186, 5.13139770005364, 5.693909900030121]",147.02079480001703,None,147.02079480001703,None,0,LHKXQJZ,147.02079480001703,None,,,,,,,,,,,,,,,,,,,,,,,,,,,,,,,,,,,,,,,,,,,,,,,,,,,,,,,,,,,,,,,,,,,,,,,,,,,,,,,,,,,,,,,,,,,,,,,,,,,,,,,,,,,,,,,,P1,001,2019_Nov_12_1124,test_final,3.1.5,60.01925418360969,
,,,,11,0,11,0,1,0,1,0,,,,,,,,,,,,,,,,,,,,,,,,,,,,,,,,,,,,,,,154.57992400007788,None,,,,,,,,,,,,,,,,,,,,,,,,,,,,,,,,,,,,,,,,,,,,,,,,,,,,,,,,,,,,,,,,,,,,,,,,,,,,,,,,,,,,,,,,,,,,,,,,,,,,,,,,,,,,,,,,,,,,,,,,,,,P1,001,2019_Nov_12_1124,test_final,3.1.5,60.01925418360969,
,,,,11,0,11,0,2,0,2,0,,,,,,,,,,,,,,,,,,,,,,,,,,,,,,,,,,,,,,,155.87879089999478,None,,,,,,,,,,,,,,,,,,,,,,,,,,,,,,,,,,,,,,,,,,,,,,,,,,,,,,,,,,,,,,,,,,,,,,,,,,,,,,,,,,,,,,,,,,,,,,,,,,,,,,,,,,,,,,,,,,,,,,,,,,,P1,001,2019_Nov_12_1124,test_final,3.1.5,60.01925418360969,
,,,,11,0,11,0,3,0,3,0,,,,,,,,,,,,,,,,,,,,,,,,,,,,,,,,,,,,,,,157.1774391999934,None,,,,,,,,,,,,,,,,,,,,,,,,,,,,,,,,,,,,,,,,,,,,,,,,,,,,,,,,,,,,,,,,,,,,,,,,,,,,,,,,,,,,,,,,,,,,,,,,,,,,,,,,,,,,,,,,,,,,,,,,,,,P1,001,2019_Nov_12_1124,test_final,3.1.5,60.01925418360969,
,,,,11,0,11,0,4,0,4,0,,,,,,,,,,,,,,,,,,,,,,,,,,,,,,,,,,,,,,,158.47621280001476,None,,,,,,,,,,,,,,,,,,,,,,,,,,,,,,,,,,,,,,,,,,,,,,,,,,,,,,,,,,,,,,,,,,,,,,,,,,,,,,,,,,,,,,,,,,,,,,,,,,,,,,,,,,,,,,,,,,,,,,,,,,,P1,001,2019_Nov_12_1124,test_final,3.1.5,60.01925418360969,
,,,,11,0,11,0,5,0,5,0,,,,,,,,,,,,,,,,,,,,,,,,,,,,,,,,,,,,,,,159.77461209998,None,,,,,,,,,,,,,,,,,,,,,,,,,,,,,,,,,,,,,,,,,,,,,,,,,,,,,,,,,,,,,,,,,,,,,,,,,,,,,,,,,,,,,,,,,,,,,,,,,,,,,,,,,,,,,,,,,,,,,,,,,,,P1,001,2019_Nov_12_1124,test_final,3.1.5,60.01925418360969,
,,,,11,0,11,0,6,0,6,0,,,,,,,,,,,,,,,,,,,,,,,,,,,,,,,,,,,,,,,161.07359809998889,None,,,,,,,,,,,,,,,,,,,,,,,,,,,,,,,,,,,,,,,,,,,,,,,,,,,,,,,,,,,,,,,,,,,,,,,,,,,,,,,,,,,,,,,,,,,,,,,,,,,,,,,,,,,,,,,,,,,,,,,,,,,P1,001,2019_Nov_12_1124,test_final,3.1.5,60.01925418360969,
,,,,12,0,12,0,0,0,0,0,,,,,,,,,,,,,,,,,,,,,,,,,,,,,,,,,,,,,,,168.33315479999874,None,vrkjxs,"['v', 'r', 'k', 'j', 'x', 's']","[1.3861854000715539, 2.0801549999741837, 3.648356399964541, 4.128231700044125, 4.52433160005603, 5.011495099985041, 5.404009800055064]",162.37241129996255,None,162.37241129996255,None,0,VRKJXSL,162.37241129996255,None,,,,,,,,,,,,,,,,,,,,,,,,,,,,,,,,,,,,,,,,,,,,,,,,,,,,,,,,,,,,,,,,,,,,,,,,,,,,,,,,,,,,,,,,,,,,,,,,,,,,,,,,,,,,,,,,P1,001,2019_Nov_12_1124,test_final,3.1.5,60.01925418360969,
,,,,12,0,12,0,1,0,1,0,,,,,,,,,,,,,,,,,,,,,,,,,,,,,,,,,,,,,,,169.64838080003392,None,,,,,,,,,,,,,,,,,,,,,,,,,,,,,,,,,,,,,,,,,,,,,,,,,,,,,,,,,,,,,,,,,,,,,,,,,,,,,,,,,,,,,,,,,,,,,,,,,,,,,,,,,,,,,,,,,,,,,,,,,,,P1,001,2019_Nov_12_1124,test_final,3.1.5,60.01925418360969,
,,,,12,0,12,0,2,0,2,0,,,,,,,,,,,,,,,,,,,,,,,,,,,,,,,,,,,,,,,170.94726990000345,None,,,,,,,,,,,,,,,,,,,,,,,,,,,,,,,,,,,,,,,,,,,,,,,,,,,,,,,,,,,,,,,,,,,,,,,,,,,,,,,,,,,,,,,,,,,,,,,,,,,,,,,,,,,,,,,,,,,,,,,,,,,P1,001,2019_Nov_12_1124,test_final,3.1.5,60.01925418360969,
,,,,12,0,12,0,3,0,3,0,,,,,,,,,,,,,,,,,,,,,,,,,,,,,,,,,,,,,,,172.24581370002124,None,,,,,,,,,,,,,,,,,,,,,,,,,,,,,,,,,,,,,,,,,,,,,,,,,,,,,,,,,,,,,,,,,,,,,,,,,,,,,,,,,,,,,,,,,,,,,,,,,,,,,,,,,,,,,,,,,,,,,,,,,,,P1,001,2019_Nov_12_1124,test_final,3.1.5,60.01925418360969,
,,,,12,0,12,0,4,0,4,0,,,,,,,,,,,,,,,,,,,,,,,,,,,,,,,,,,,,,,,173.54465709999204,None,,,,,,,,,,,,,,,,,,,,,,,,,,,,,,,,,,,,,,,,,,,,,,,,,,,,,,,,,,,,,,,,,,,,,,,,,,,,,,,,,,,,,,,,,,,,,,,,,,,,,,,,,,,,,,,,,,,,,,,,,,,P1,001,2019_Nov_12_1124,test_final,3.1.5,60.01925418360969,
,,,,12,0,12,0,5,0,5,0,,,,,,,,,,,,,,,,,,,,,,,,,,,,,,,,,,,,,,,174.84341720002703,None,,,,,,,,,,,,,,,,,,,,,,,,,,,,,,,,,,,,,,,,,,,,,,,,,,,,,,,,,,,,,,,,,,,,,,,,,,,,,,,,,,,,,,,,,,,,,,,,,,,,,,,,,,,,,,,,,,,,,,,,,,,P1,001,2019_Nov_12_1124,test_final,3.1.5,60.01925418360969,
,,,,12,0,12,0,6,0,6,0,,,,,,,,,,,,,,,,,,,,,,,,,,,,,,,,,,,,,,,176.1421329000732,175.6256387999747,,,,,,,,,,,,,,,,,,,,,,,,,,,,,,,,,,,,,,,,,,,,,,,,,,,,,,,,,,,,,,,,,,,,,,,,,,,,,,,,,,,,,,,,,,,,,,,,,,,,,,,,,,,,,,,,,,,,,,,,,,,P1,001,2019_Nov_12_1124,test_final,3.1.5,60.01925418360969,
,,,,,,,,,,,,,,,,,,,,,,,,,,,,,,,,,,,,,,,,,,,,,,,,,,,,vjskrz,"['v', 'j', 's', 'k', 'r', 'z']","[1.930374599993229, 2.5300746000139043, 5.327430699951947, 5.863247600034811, 6.241569999954663, 6.736812199931592, 7.193708500009961]",177.44096040003933,None,177.44096040003933,None,0,VJZRKHX,177.44096040003933,None,185.2001436999999,None,space,5.2112696000840515,185.2001436999999,None,,,,,,,,,,,,,,,,,,,,,,,,,,,,,,,,,,,,,,,,,,,,,,,,,,,,,,,,,,,,,,,,,,,,,,,,,,,,,,,,,,,,,,,,,,,,,,,,,,,,,,,,,,P1,001,2019_Nov_12_1124,test_final,3.1.5,60.01925418360969,
Practice,9,(4/2) + 5,7,,,,,,,,,0,0,0,0,0,0,0,8,,,,,,,,,,,,,,,,,,,,,,,,,,,,,,,,,,,,,,,,,,,,,,,,,,7,191.0607208000729,None,['7'],0,[2.3867616000352427],191.0607208000729,None,191.0607208000729,None,[2.3867616000352427],191.0607208000729,None,193.9913844000548,None,,,,,,,,,,,,,,,,,,,,,,,,,,,,,,,,,,,,,,,,,,,,,,,,,,,,,,,,,,,,,,,,,,,,,,,,,,,,,,,,,,,,,,,,,,,P1,001,2019_Nov_12_1124,test_final,3.1.5,60.01925418360969,
Practice,7,(4x6) - 17,7,,,,,,,,,0,0,0,0,0,1,1,6,,,,,,,,,,,,,,,,,,,,,,,,,,,,,,,,,,,,,,,,,,,,,,,,,,7,195.5062215999933,None,['7'],0,[11.076642100000754],195.5062215999933,None,195.5062215999933,None,"[2.3867616000352427, 11.076642100000754]",195.5062215999933,None,207.1280407999875,None,,,,,,,,,,,,,,,,,,,,,,,,,,,,,,,,,,,,,,,,,,,,,,,,,,,,,,,,,,,,,,,,,,,,,,,,,,,,,,,,,,,,,,,,,,,P1,001,2019_Nov_12_1124,test_final,3.1.5,60.01925418360969,
Practice,4,(4x4) - 14,2,,,,,,,,,0,0,0,0,0,2,2,3,,,,,,,,,,,,,,,,,,,,,,,,,,,,,,,,,,,,,,,,,,,,,,,,,,2,208.62665320001543,None,['2'],0,[2.373790099984035],208.62665320001543,None,208.62665320001543,None,"[2.3867616000352427, 11.076642100000754, 2.373790099984035]",208.62665320001543,None,211.5408389000222,None,,,,,,,,,,,,,,,,,,,,,,,,,,,,,,,,,,,,,,,,,,,,,,,,,,,,,,,,,,,,,,,,,,,,,,,,,,,,,,,,,,,,,,,,,,,P1,001,2019_Nov_12_1124,test_final,3.1.5,60.01925418360969,
Practice,6,(2x6) - 8,4,,,,,,,,,0,0,0,0,0,3,3,5,,,,,,,,,,,,,,,,,,,,,,,,,,,,,,,,,,,,,,,,,,,,,,,,,,8,213.03959890000988,None,['8'],0,[1.711826500017196],213.03959890000988,None,213.03959890000988,None,"[2.3867616000352427, 11.076642100000754, 2.373790099984035, 1.711826500017196]",213.03959890000988,None,215.28691390005406,None,,,,,,,,,,,,,,,,,,,,,,,,,,,,,,,,,,,,,,,,,,,,,,,,,,,,,,,,,,,,,,,,,,,,,,,,,,,,,,,,,,,,,,,,,,,P1,001,2019_Nov_12_1124,test_final,3.1.5,60.01925418360969,
Practice,8,(3/3) + 5,6,,,,,,,,,0,0,0,0,0,4,4,7,,,,,,,,,,,,,,,,,,,,,,,,,,,,,,,,,,,,,,,,,,,,,,,,,,6,216.785604899982,None,['6'],0,[3.937675500055775],216.785604899982,None,216.785604899982,None,"[2.3867616000352427, 11.076642100000754, 2.373790099984035, 1.711826500017196, 3.937675500055775]",216.785604899982,None,221.2645051999716,None,,,,,,,,,,,,,,,,,,,,,,,,,,,,,,,,,,,,,,,,,,,,,,,,,,,,,,,,,,,,,,,,,,,,,,,,,,,,,,,,,,,,,,,,,,,P1,001,2019_Nov_12_1124,test_final,3.1.5,60.01925418360969,
Practice,1,(1x2) + 1,3,,,,,,,,,0,0,0,0,0,5,5,0,,,,,,,,,,,,,,,,,,,,,,,,,,,,,,,,,,,,,,,,,,,,,,,,,,3,222.76273229997605,None,['3'],0,[1.5987601999659091],222.76273229997605,None,222.76273229997605,None,"[2.3867616000352427, 11.076642100000754, 2.373790099984035, 1.711826500017196, 3.937675500055775, 1.5987601999659091]",222.76273229997605,None,224.89428170002066,None,,,,,,,,,,,,,,,,,,,,,,,,,,,,,,,,,,,,,,,,,,,,,,,,,,,,,,,,,,,,,,,,,,,,,,,,,,,,,,,,,,,,,,,,,,,P1,001,2019_Nov_12_1124,test_final,3.1.5,60.01925418360969,
Practice,10,(8/4) + 3,5,,,,,,,,,0,0,0,0,0,6,6,9,,,,,,,,,,,,,,,,,,,,,,,,,,,,,,,,,,,,,,,,,,,,,,,,,,5,226.39282850001473,None,['5'],0,[1.924766100011766],226.39282850001473,None,226.39282850001473,None,"[2.3867616000352427, 11.076642100000754, 2.373790099984035, 1.711826500017196, 3.937675500055775, 1.5987601999659091, 1.924766100011766]",226.39282850001473,None,228.85711880004965,None,,,,,,,,,,,,,,,,,,,,,,,,,,,,,,,,,,,,,,,,,,,,,,,,,,,,,,,,,,,,,,,,,,,,,,,,,,,,,,,,,,,,,,,,,,,P1,001,2019_Nov_12_1124,test_final,3.1.5,60.01925418360969,
Practice,15,(9/3) - 2,1,,,,,,,,,0,0,0,0,0,7,7,14,,,,,,,,,,,,,,,,,,,,,,,,,,,,,,,,,,,,,,,,,,,,,,,,,,1,230.35524880001321,None,['1'],0,[1.4988490999676287],230.35524880001321,None,230.35524880001321,None,"[2.3867616000352427, 11.076642100000754, 2.373790099984035, 1.711826500017196, 3.937675500055775, 1.5987601999659091, 1.924766100011766, 1.4988490999676287]",230.35524880001321,None,232.3871604000451,None,,,,,,,,,,,,,,,,,,,,,,,,,,,,,,,,,,,,,,,,,,,,,,,,,,,,,,,,,,,,,,,,,,,,,,,,,,,,,,,,,,,,,,,,,,,P1,001,2019_Nov_12_1124,test_final,3.1.5,60.01925418360969,
Practice,2,(1/1) - 1,0,,,,,,,,,0,0,0,0,0,8,8,1,,,,,,,,,,,,,,,,,,,,,,,,,,,,,,,,,,,,,,,,,,,,,,,,,,0,233.88567540002987,None,['0'],0,[1.931581599987112],233.88567540002987,None,233.88567540002987,None,"[2.3867616000352427, 11.076642100000754, 2.373790099984035, 1.711826500017196, 3.937675500055775, 1.5987601999659091, 1.924766100011766, 1.4988490999676287, 1.931581599987112]",233.88567540002987,None,236.34983199997805,None,,,,,,,,,,,,,,,,,,,,,,,,,,,,,,,,,,,,,,,,,,,,,,,,,,,,,,,,,,,,,,,,,,,,,,,,,,,,,,,,,,,,,,,,,,,P1,001,2019_Nov_12_1124,test_final,3.1.5,60.01925418360969,
Practice,13,(3x8) - 19 ,5,,,,,,,,,0,0,0,0,0,9,9,12,,,,,,,,,,,,,,,,,,,,,,,,,,,,,,,,,,,,,,,,,,,,,,,,,,5,237.84825440007262,None,['5'],0,[3.760837099980563],237.84825440007262,None,237.84825440007262,None,"[2.3867616000352427, 11.076642100000754, 2.373790099984035, 1.711826500017196, 3.937675500055775, 1.5987601999659091, 1.924766100011766, 1.4988490999676287, 1.931581599987112, 3.760837099980563]",237.84825440007262,None,242.14426069997717,None,,,,,,,,,,,,,,,,,,,,,,,,,,,,,,,,,,,,,,,,,,,,,,,,,,,,,,,,,,,,,,,,,,,,,,,,,,,,,,,,,,,,,,,,,,,P1,001,2019_Nov_12_1124,test_final,3.1.5,60.01925418360969,
Practice,14,(6/3) + 4 ,6,,,,,,,,,0,0,0,0,0,10,10,13,,,,,,,,,,,,,,,,,,,,,,,,,,,,,,,,,,,,,,,,,,,,,,,,,,6,243.64271529996768,None,['6'],0,[2.7728658000705764],243.64271529996768,None,243.64271529996768,None,"[2.3867616000352427, 11.076642100000754, 2.373790099984035, 1.711826500017196, 3.937675500055775, 1.5987601999659091, 1.924766100011766, 1.4988490999676287, 1.931581599987112, 3.760837099980563, 2.7728658000705764]",243.64271529996768,None,246.95596130006015,None,,,,,,,,,,,,,,,,,,,,,,,,,,,,,,,,,,,,,,,,,,,,,,,,,,,,,,,,,,,,,,,,,,,,,,,,,,,,,,,,,,,,,,,,,,,P1,001,2019_Nov_12_1124,test_final,3.1.5,60.01925418360969,
Practice,5,(3/3) + 2,3,,,,,,,,,0,0,0,0,0,11,11,4,,,,,,,,,,,,,,,,,,,,,,,,,,,,,,,,,,,,,,,,,,,,,,,,,,3,248.45460220007226,None,['3'],0,[1.7834090000251308],248.45460220007226,None,248.45460220007226,None,"[2.3867616000352427, 11.076642100000754, 2.373790099984035, 1.711826500017196, 3.937675500055775, 1.5987601999659091, 1.924766100011766, 1.4988490999676287, 1.931581599987112, 3.760837099980563, 2.7728658000705764, 1.7834090000251308]",248.45460220007226,None,250.78594099998008,None,,,,,,,,,,,,,,,,,,,,,,,,,,,,,,,,,,,,,,,,,,,,,,,,,,,,,,,,,,,,,,,,,,,,,,,,,,,,,,,,,,,,,,,,,,,P1,001,2019_Nov_12_1124,test_final,3.1.5,60.01925418360969,
Practice,12,(8/2) + 4,8,,,,,,,,,0,0,0,0,0,12,12,11,,,,,,,,,,,,,,,,,,,,,,,,,,,,,,,,,,,,,,,,,,,,,,,,,,8,252.2842468000017,None,['8'],0,[2.439700399991125],252.2842468000017,None,252.2842468000017,None,"[2.3867616000352427, 11.076642100000754, 2.373790099984035, 1.711826500017196, 3.937675500055775, 1.5987601999659091, 1.924766100011766, 1.4988490999676287, 1.931581599987112, 3.760837099980563, 2.7728658000705764, 1.7834090000251308, 2.439700399991125]",252.2842468000017,None,255.2642209000187,None,,,,,,,,,,,,,,,,,,,,,,,,,,,,,,,,,,,,,,,,,,,,,,,,,,,,,,,,,,,,,,,,,,,,,,,,,,,,,,,,,,,,,,,,,,,P1,001,2019_Nov_12_1124,test_final,3.1.5,60.01925418360969,
Practice,11,(5x3) - 7,8,,,,,,,,,0,0,0,0,0,13,13,10,,,,,,,,,,,,,,,,,,,,,,,,,,,,,,,,,,,,,,,,,,,,,,,,,,8,256.7632285000291,None,['8'],0,[2.817879799986258],256.7632285000291,None,256.7632285000291,None,"[2.3867616000352427, 11.076642100000754, 2.373790099984035, 1.711826500017196, 3.937675500055775, 1.5987601999659091, 1.924766100011766, 1.4988490999676287, 1.931581599987112, 3.760837099980563, 2.7728658000705764, 1.7834090000251308, 2.439700399991125, 2.817879799986258]",256.7632285000291,None,260.12638769997284,None,,,,,,,,,,,,,,,,,,,,,,,,,,,,,,,,,,,,,,,,,,,,,,,,,,,,,,,,,,,,,,,,,,,,,,,,,,,,,,,,,,,,,,,,,,,P1,001,2019_Nov_12_1124,test_final,3.1.5,60.01925418360969,
Practice,3,(7x2) - 5,9,,,,,,,,,0,0,0,0,0,14,14,2,,,,,,,,,,,,,,,,,,,,,,,,,,,,,,,,,,,,,,,,,,,,,,,,,,9,261.62516699999105,None,['9'],0,[1.9246117000002414],261.62516699999105,None,261.62516699999105,None,"[2.3867616000352427, 11.076642100000754, 2.373790099984035, 1.711826500017196, 3.937675500055775, 1.5987601999659091, 1.924766100011766, 1.4988490999676287, 1.931581599987112, 3.760837099980563, 2.7728658000705764, 1.7834090000251308, 2.439700399991125, 2.817879799986258, 1.9246117000002414]",261.62516699999105,None,264.0889442000771,None,,,,,,,,,,,,,,,,,,,,,,,,,,,,,,,,,,,,,,,,,,,,,,,,,,,,,,,,,,,,,,,,,,,,,,,,,,,,,,,,,,,,,,,,,,,P1,001,2019_Nov_12_1124,test_final,3.1.5,60.01925418360969,
,,,,,,,,,,,,0,0,0,0,,,,,,,,,,,,,,,,,,,,,,,,,,,,,,,,,,,,,,,,,,,,,,,,,,,,,,,,,,,,,,,,,,,,,0.9333333333333333,43.93995660007931,2.9293304400052875,78.59275421693037,2.2889991148524627,8.834948156324641,265.5883158000652,None,space,3.39784980006516,265.5883158000652,None,,,,,,,,,,,,,,,,,,,,,,,,,,,,,,,,,,,,,,,,,,,,,,,,,,,,,,,,,,,,,,,,,,,,,,,,,,,,,,,P1,001,2019_Nov_12_1124,test_final,3.1.5,60.01925418360969,
,,,,,,,,,,,,,,,,,,,,,,,,,,,,,,,,,,,,,,,,,,,,,,,,,,,,,,,,,,,,,,,,,,,,,,,,,,,,,,,,,,,,,,,,,,,,,,,,269.55090450006537,None,space,12.554364799987525,269.55090450006537,None,,,,,,,,,,,,,,,,,,,,,,,,,,,,,,,,,,,,,,,,,,,,,,,,,,,,,,,,,,,,,,,,,,,,,,,,,P1,001,2019_Nov_12_1124,test_final,3.1.5,60.01925418360969,
Practice,6,(2x6) - 8,4,,,,,,,,,,,,,,,,,0,0,0,0,0,0,0,0,0,0,0,5,,,,,,,,,,,,,,,,,,,,,,,,,,,,,,,,,,,,,,4,,,,,,,,,,,,,,,,,,,,,,,,,,,,,,,,,282.6715575000271,None,['4'],0,[2.510983500047587],282.6715575000271,None,282.6715575000271,None,282.6715575000271,None,1,285.2798037000466,None,285.2798037000466,None,,,,,,,,,,,,,,,,,,,,,,,,,,,,,,,,,,,,,,,,,,,,,,,,,,,,,,,,,P1,001,2019_Nov_12_1124,test_final,3.1.5,60.01925418360969,
,,,,,,,,,,,,,,,,,,,,0,0,0,0,0,0,0,0,,,,,,,,,,,,,,,,,,,,,,,,,,,,,,,,,,,,,,,,,,,,,,,,,,,,,,,,,,,,,,,,,,,,,,,,,,,,,,,,,,,,,,,,,,,286.6171327000484,None,,,,,,,,,,,,,,,,,,,,,,,,,,,,,,,,,,,,,,,,,,,,,,,,,,,,,,,P1,001,2019_Nov_12_1124,test_final,3.1.5,60.01925418360969,
Practice,11,(5x3) - 7,8,,,,,,,,,,,,,,,,,0,0,0,0,1,0,1,0,0,0,0,10,,,,,,,,,,,,,,,,,,,,,,,,,,,,,,,,,,,,,,9,,,,,,,,,,,,,,,,,,,,,,,,,,,,,,,,,287.91597800003365,None,['9'],0,[6.454586199950427],287.91597800003365,None,287.91597800003365,None,287.91597800003365,None,0,294.46745060000103,None,294.46745060000103,None,,,,,,,,,,,,,,,,,,,,,,,,,,,,,,,,,,,,,,,,,,,,,,,,,,,,,,,,,P1,001,2019_Nov_12_1124,test_final,3.1.5,60.01925418360969,
Practice,15,(9/3) - 2,1,,,,,,,,,,,,,,,,,0,0,0,0,1,0,1,0,0,1,1,14,,,,,,,,,,,,,,,,,,,,,,,,,,,,,,,,,,,,,,1,,,,,,,,,,,,,,,,,,,,,,,,,,,,,,,,,295.8081661000615,None,['1'],0,[5.254772400017828],295.8081661000615,None,295.8081661000615,None,295.8081661000615,None,1,301.1278707999736,None,301.1278707999736,None,,,,,,,,,,,,,,,,,,,,,,,,,,,,,,,,,,,,,,,,,,,,,,,,,,,,,,,,,P1,001,2019_Nov_12_1124,test_final,3.1.5,60.01925418360969,
,,,,,,,,,,,,,,,,,,,,0,0,0,0,1,0,1,0,,,,,,,,,,,,,,,,,,,,,,,,,,,,,,,,,,,,,,,,,,,,,,,,,,,,,,,,,,,,,,,,,,,,,,,,,,,,,,,,,,,,,,,,,,,302.4514734999975,None,,,,,,,,,,,,,,,,,,,,,,,,,,,,,,,,,,,,,,,,,,,,,,,,,,,,,,,P1,001,2019_Nov_12_1124,test_final,3.1.5,60.01925418360969,
,,,,,,,,,,,,,,,,,,,,0,0,0,0,,,,,,,,,,,,,,,,,,,,,,,,,,,,,,,,,,,,,,,,,,,,,,,,,,,,,,,,,,,,,,,,,,,,,,,,,,,,,,,,,,,,,,,,,,,,,,,,,xt,"['x', 't']",0,"[1.5312568000517786, 1.7434038000646979, 2.3471206000540406]",303.74996390007436,None,303.74996390007436,None,303.74996390007436,None,1,306.647196099977,None,,,,,,,,,,,,,,,,,,,,,,,,,,,,,,,,,,,,,,,,,,P1,001,2019_Nov_12_1124,test_final,3.1.5,60.01925418360969,
Practice,9,(4/2) + 5,7,,,,,,,,,,,,,,,,,1,0,1,0,0,0,0,0,0,0,0,8,,,,,,,,,,,,,,,,,,,,,,,,,,,,,,,,,,,,,,7,,,,,,,,,,,,,,,,,,,,,,,,,,,,,,,,,308.17941800004337,None,['7'],0,[2.1325713999103755],308.17941800004337,None,308.17941800004337,None,308.17941800004337,None,1,310.42622979998123,None,310.42622979998123,None,,,,,,,,,,,,,,,,,,,,,,,,,,,,,,,,,,,,,,,,,,,,,,,,,,,,,,,,,P1,001,2019_Nov_12_1124,test_final,3.1.5,60.01925418360969,
,,,,,,,,,,,,,,,,,,,,1,0,1,0,0,0,0,0,,,,,,,,,,,,,,,,,,,,,,,,,,,,,,,,,,,,,,,,,,,,,,,,,,,,,,,,,,,,,,,,,,,,,,,,,,,,,,,,,,,,,,,,,,,311.75919480004814,None,,,,,,,,,,,,,,,,,,,,,,,,,,,,,,,,,,,,,,,,,,,,,,,,,,,,,,,P1,001,2019_Nov_12_1124,test_final,3.1.5,60.01925418360969,
Practice,10,(8/4) + 3,5,,,,,,,,,,,,,,,,,1,0,1,0,1,0,1,0,0,0,0,9,,,,,,,,,,,,,,,,,,,,,,,,,,,,,,,,,,,,,,5,,,,,,,,,,,,,,,,,,,,,,,,,,,,,,,,,313.0746126000304,None,['5'],0,[2.5125815999927],313.0746126000304,None,313.0746126000304,None,313.0746126000304,None,1,315.6760398000479,None,315.6760398000479,None,,,,,,,,,,,,,,,,,,,,,,,,,,,,,,,,,,,,,,,,,,,,,,,,,,,,,,,,,P1,001,2019_Nov_12_1124,test_final,3.1.5,60.01925418360969,
,,,,,,,,,,,,,,,,,,,,1,0,1,0,1,0,1,0,,,,,,,,,,,,,,,,,,,,,,,,,,,,,,,,,,,,,,,,,,,,,,,,,,,,,,,,,,,,,,,,,,,,,,,,,,,,,,,,,,,,,,,,,,,317.0206417000154,None,,,,,,,,,,,,,,,,,,,,,,,,,,,,,,,,,,,,,,,,,,,,,,,,,,,,,,,P1,001,2019_Nov_12_1124,test_final,3.1.5,60.01925418360969,
,,,,,,,,,,,,,,,,,,,,1,0,1,0,,,,,,,,,,,,,,,,,,,,,,,,,,,,,,,,,,,,,,,,,,,,,,,,,,,,,,,,,,,,,,,,,,,,,,,,,,,,,,,,,,,,,,,,,,,,,,,,,sx,"['s', 'x']",0,"[0.798539699986577, 1.046621200046502, 1.454062500037253]",318.3027923000045,None,318.3027923000045,None,318.3027923000045,None,1,320.3174161000643,None,,,,,,,,,,,,,,,,,,,,,,,,,,,,,,,,,,,,,,,,,,P1,001,2019_Nov_12_1124,test_final,3.1.5,60.01925418360969,
Practice,7,(4x6) - 17,7,,,,,,,,,,,,,,,,,2,0,2,0,0,0,0,0,0,0,0,6,,,,,,,,,,,,,,,,,,,,,,,,,,,,,,,,,,,,,,7,,,,,,,,,,,,,,,,,,,,,,,,,,,,,,,,,321.8493075000588,None,['7'],0,[6.082644799957052],321.8493075000588,None,321.8493075000588,None,321.8493075000588,None,1,328.0282736000372,None,328.0282736000372,None,,,,,,,,,,,,,,,,,,,,,,,,,,,,,,,,,,,,,,,,,,,,,,,,,,,,,,,,,P1,001,2019_Nov_12_1124,test_final,3.1.5,60.01925418360969,
,,,,,,,,,,,,,,,,,,,,2,0,2,0,0,0,0,0,,,,,,,,,,,,,,,,,,,,,,,,,,,,,,,,,,,,,,,,,,,,,,,,,,,,,,,,,,,,,,,,,,,,,,,,,,,,,,,,,,,,,,,,,,,329.3754163000267,None,,,,,,,,,,,,,,,,,,,,,,,,,,,,,,,,,,,,,,,,,,,,,,,,,,,,,,,P1,001,2019_Nov_12_1124,test_final,3.1.5,60.01925418360969,
Practice,10,(8/4) + 3,5,,,,,,,,,,,,,,,,,2,0,2,0,1,0,1,0,0,0,0,9,,,,,,,,,,,,,,,,,,,,,,,,,,,,,,,,,,,,,,5,,,,,,,,,,,,,,,,,,,,,,,,,,,,,,,,,330.69060119998176,None,['5'],0,[2.2583181000081822],330.69060119998176,None,330.69060119998176,None,330.69060119998176,None,1,333.0454161000671,None,333.0454161000671,None,,,,,,,,,,,,,,,,,,,,,,,,,,,,,,,,,,,,,,,,,,,,,,,,,,,,,,,,,P1,001,2019_Nov_12_1124,test_final,3.1.5,60.01925418360969,
,,,,,,,,,,,,,,,,,,,,2,0,2,0,1,0,1,0,,,,,,,,,,,,,,,,,,,,,,,,,,,,,,,,,,,,,,,,,,,,,,,,,,,,,,,,,,,,,,,,,,,,,,,,,,,,,,,,,,,,,,,,,,,334.3867533999728,None,,,,,,,,,,,,,,,,,,,,,,,,,,,,,,,,,,,,,,,,,,,,,,,,,,,,,,,P1,001,2019_Nov_12_1124,test_final,3.1.5,60.01925418360969,
,,,,,,,,,,,,,,,,,,,,2,0,2,0,,,,,,,,,,,,,,,,,,,,,,,,,,,,,,,,,,,,,,,,,,,,,,,,,,,,,,,,,,,,,,,,,,,,,,,,,,,,,,,,,,,,,,,,,,,,,,,,,vj,"['v', 'j']",0,"[0.8698597999755293, 0.9932323000393808, 1.4221626999787986]",335.6691645999672,None,335.6691645999672,None,335.6691645999672,None,1,337.6502881000051,None,,,,,,,,,,,,,,,,,,,,,,,,,,,,,,,,,,,,,,,,,,P1,001,2019_Nov_12_1124,test_final,3.1.5,60.01925418360969,
,,,,,,,,,,,,,,,,,,,,,,,,,,,,,,,,,,,,,,,,,,,,,,,,,,,,,,,,,,,,,,,,,,,,,,,,,,,,,,,,,,,,,,,,,,,,,,,,,,,,,,,,,,,,,,,,,,,,,,,,,,,,,,,,,,,,,339.16635309997946,None,space,7.586448199930601,339.16635309997946,None,,,,,,,,,,,,,,,,,,,,,,,,,,,,,,,,,,,,P1,001,2019_Nov_12_1124,test_final,3.1.5,60.01925418360969,
Practice,15,(9/3) - 2,1,,,,,,,,,,,,,,,,,,,,,,,,,,,,,0,0,0,0,0,0,0,0,0,0,0,14,,,,,,,,,,,,,,,,,,,,,,,,,,1,,,,,,,,,,,,,,,,,,,,,,,,,,,,,,,,,,,,,,,,,,,,1,,,,,,,,,,,,,,,,,,,,,,,,,,347.34043069998734,None,['1'],0,[2.7666109000565484],347.34043069998734,None,347.34043069998734,None,347.34043069998734,None,350.21223229996394,None,350.21223229996394,None,,,,,,,,,,,,,,,,,,,,,P1,001,2019_Nov_12_1124,test_final,3.1.5,60.01925418360969,
,,,,,,,,,,,,,,,,,,,,,,,,,,,,,,,,0,0,0,0,0,0,0,0,,,,,,,,,,,,,,,,,,,,,,,,,,,,,,,,,,,,,,,,,,,,,,,,,,,,,,,,,,,,,,,,,,,,,,,,,,,,,,,,,,,,,,,,,,,,,,,,,,,,,,,,,,,,,,,,,,,351.53685440006666,None,,,,,,,,,,,,,,,,,,,P1,001,2019_Nov_12_1124,test_final,3.1.5,60.01925418360969,
Practice,4,(4x4) - 14,2,,,,,,,,,,,,,,,,,,,,,,,,,,,,,0,0,0,0,1,0,1,0,0,0,0,3,,,,,,,,,,,,,,,,,,,,,,,,,,2,,,,,,,,,,,,,,,,,,,,,,,,,,,,,,,,,,,,,,,,,,,,1,,,,,,,,,,,,,,,,,,,,,,,,,,352.8689442999894,None,['2'],0,[2.617071200045757],352.8689442999894,None,352.8689442999894,None,352.8689442999894,None,355.5718076999765,None,355.5718076999765,None,,,,,,,,,,,,,,,,,,,,,P1,001,2019_Nov_12_1124,test_final,3.1.5,60.01925418360969,
,,,,,,,,,,,,,,,,,,,,,,,,,,,,,,,,0,0,0,0,1,0,1,0,,,,,,,,,,,,,,,,,,,,,,,,,,,,,,,,,,,,,,,,,,,,,,,,,,,,,,,,,,,,,,,,,,,,,,,,,,,,,,,,,,,,,,,,,,,,,,,,,,,,,,,,,,,,,,,,,,,356.91496399999596,None,,,,,,,,,,,,,,,,,,,P1,001,2019_Nov_12_1124,test_final,3.1.5,60.01925418360969,
,,,,,,,,,,,,,,,,,,,,,,,,,,,,,,,,0,0,0,0,,,,,,,,,,,,,,,,,,,,,,,,,,,,,,,,,,,,,,,,,,,,,,,,,,,,,,,,,,,,,,,,,,,,,,,,,,,,,,,,,,,,,,,,,,,,,,,,,,,,,,,,,,,,,,,,,,,,,,,,,vl,"['v', 'l']",0,"[0.8306581999640912, 0.9737170999869704, 1.3590770999435335]",358.19695300003514,None,358.19695300003514,None,1,VL,358.19695300003514,None,,,,,,,P1,001,2019_Nov_12_1124,test_final,3.1.5,60.01925418360969,
Practice,3,(7x2) - 5,9,,,,,,,,,,,,,,,,,,,,,,,,,,,,,1,0,1,0,0,0,0,0,0,0,0,2,,,,,,,,,,,,,,,,,,,,,,,,,,9,,,,,,,,,,,,,,,,,,,,,,,,,,,,,,,,,,,,,,,,,,,,1,,,,,,,,,,,,,,,,,,,,,,,,,,360.1283102000598,None,['9'],0,[2.329022099962458],360.1283102000598,None,360.1283102000598,None,360.1283102000598,None,362.54252050002106,None,362.54252050002106,None,,,,,,,,,,,,,,,,,,,,,P1,001,2019_Nov_12_1124,test_final,3.1.5,60.01925418360969,
,,,,,,,,,,,,,,,,,,,,,,,,,,,,,,,,1,0,1,0,0,0,0,0,,,,,,,,,,,,,,,,,,,,,,,,,,,,,,,,,,,,,,,,,,,,,,,,,,,,,,,,,,,,,,,,,,,,,,,,,,,,,,,,,,,,,,,,,,,,,,,,,,,,,,,,,,,,,,,,,,,363.8746996000409,None,,,,,,,,,,,,,,,,,,,P1,001,2019_Nov_12_1124,test_final,3.1.5,60.01925418360969,
Practice,12,(8/2) + 4,8,,,,,,,,,,,,,,,,,,,,,,,,,,,,,1,0,1,0,1,0,1,0,0,0,0,11,,,,,,,,,,,,,,,,,,,,,,,,,,8,,,,,,,,,,,,,,,,,,,,,,,,,,,,,,,,,,,,,,,,,,,,1,,,,,,,,,,,,,,,,,,,,,,,,,,365.19028139999136,None,['8'],0,[2.160794699913822],365.19028139999136,None,365.19028139999136,None,365.19028139999136,None,367.4332391000353,None,367.4332391000353,None,,,,,,,,,,,,,,,,,,,,,P1,001,2019_Nov_12_1124,test_final,3.1.5,60.01925418360969,
,,,,,,,,,,,,,,,,,,,,,,,,,,,,,,,,1,0,1,0,1,0,1,0,,,,,,,,,,,,,,,,,,,,,,,,,,,,,,,,,,,,,,,,,,,,,,,,,,,,,,,,,,,,,,,,,,,,,,,,,,,,,,,,,,,,,,,,,,,,,,,,,,,,,,,,,,,,,,,,,,,368.7698113999795,None,,,,,,,,,,,,,,,,,,,P1,001,2019_Nov_12_1124,test_final,3.1.5,60.01925418360969,
Practice,13,(3x8) - 19 ,5,,,,,,,,,,,,,,,,,,,,,,,,,,,,,1,0,1,0,2,0,2,0,0,0,0,12,,,,,,,,,,,,,,,,,,,,,,,,,,5,,,,,,,,,,,,,,,,,,,,,,,,,,,,,,,,,,,,,,,,,,,,1,,,,,,,,,,,,,,,,,,,,,,,,,,370.10178440005984,None,['5'],0,[5.195729699917138],370.10178440005984,None,370.10178440005984,None,370.10178440005984,None,375.3615044000326,None,375.3615044000326,None,,,,,,,,,,,,,,,,,,,,,P1,001,2019_Nov_12_1124,test_final,3.1.5,60.01925418360969,
,,,,,,,,,,,,,,,,,,,,,,,,,,,,,,,,1,0,1,0,2,0,2,0,,,,,,,,,,,,,,,,,,,,,,,,,,,,,,,,,,,,,,,,,,,,,,,,,,,,,,,,,,,,,,,,,,,,,,,,,,,,,,,,,,,,,,,,,,,,,,,,,,,,,,,,,,,,,,,,,,,376.7117764999857,None,,,,,,,,,,,,,,,,,,,P1,001,2019_Nov_12_1124,test_final,3.1.5,60.01925418360969,
,,,,,,,,,,,,,,,,,,,,,,,,,,,,,,,,1,0,1,0,,,,,,,,,,,,,,,,,,,,,,,,,,,,,,,,,,,,,,,,,,,,,,,,,,,,,,,,,,,,,,,,,,,,,,,,,,,,,,,,,,,,,,,,,,,,,,,,,,,,,,,,,,,,,,,,,,,,,,,,,kqr,"['k', 'q', 'r']",0,"[0.8197150999912992, 1.1202068000566214, 1.4278843000065535, 1.719223599997349]",377.9944134000689,None,377.9944134000689,None,1,KQR,377.9944134000689,None,,,,,,,P1,001,2019_Nov_12_1124,test_final,3.1.5,60.01925418360969,
Practice,8,(3/3) + 5,6,,,,,,,,,,,,,,,,,,,,,,,,,,,,,2,0,2,0,0,0,0,0,0,0,0,7,,,,,,,,,,,,,,,,,,,,,,,,,,6,,,,,,,,,,,,,,,,,,,,,,,,,,,,,,,,,,,,,,,,,,,,1,,,,,,,,,,,,,,,,,,,,,,,,,,380.2919872000348,None,['6'],0,[2.068093299982138],380.2919872000348,None,380.2919872000348,None,380.2919872000348,None,382.4399246000685,None,382.4399246000685,None,,,,,,,,,,,,,,,,,,,,,P1,001,2019_Nov_12_1124,test_final,3.1.5,60.01925418360969,
,,,,,,,,,,,,,,,,,,,,,,,,,,,,,,,,2,0,2,0,0,0,0,0,,,,,,,,,,,,,,,,,,,,,,,,,,,,,,,,,,,,,,,,,,,,,,,,,,,,,,,,,,,,,,,,,,,,,,,,,,,,,,,,,,,,,,,,,,,,,,,,,,,,,,,,,,,,,,,,,,,383.7882574000396,None,,,,,,,,,,,,,,,,,,,P1,001,2019_Nov_12_1124,test_final,3.1.5,60.01925418360969,
Practice,4,(4x4) - 14,2,,,,,,,,,,,,,,,,,,,,,,,,,,,,,2,0,2,0,1,0,1,0,0,0,0,3,,,,,,,,,,,,,,,,,,,,,,,,,,2,,,,,,,,,,,,,,,,,,,,,,,,,,,,,,,,,,,,,,,,,,,,1,,,,,,,,,,,,,,,,,,,,,,,,,,385.10402209998574,None,['2'],0,[2.2728383999783546],385.10402209998574,None,385.10402209998574,None,385.10402209998574,None,387.4644838999957,None,387.4644838999957,None,,,,,,,,,,,,,,,,,,,,,P1,001,2019_Nov_12_1124,test_final,3.1.5,60.01925418360969,
,,,,,,,,,,,,,,,,,,,,,,,,,,,,,,,,2,0,2,0,1,0,1,0,,,,,,,,,,,,,,,,,,,,,,,,,,,,,,,,,,,,,,,,,,,,,,,,,,,,,,,,,,,,,,,,,,,,,,,,,,,,,,,,,,,,,,,,,,,,,,,,,,,,,,,,,,,,,,,,,,,388.81689770007506,None,,,,,,,,,,,,,,,,,,,P1,001,2019_Nov_12_1124,test_final,3.1.5,60.01925418360969,
Practice,13,(3x8) - 19 ,5,,,,,,,,,,,,,,,,,,,,,,,,,,,,,2,0,2,0,2,0,2,0,0,0,0,12,,,,,,,,,,,,,,,,,,,,,,,,,,5,,,,,,,,,,,,,,,,,,,,,,,,,,,,,,,,,,,,,,,,,,,,1,,,,,,,,,,,,,,,,,,,,,,,,,,390.1321400000015,None,['5'],0,[2.809455499984324],390.1321400000015,None,390.1321400000015,None,390.1321400000015,None,393.0299214000115,None,393.0299214000115,None,,,,,,,,,,,,,,,,,,,,,P1,001,2019_Nov_12_1124,test_final,3.1.5,60.01925418360969,
,,,,,,,,,,,,,,,,,,,,,,,,,,,,,,,,2,0,2,0,2,0,2,0,,,,,,,,,,,,,,,,,,,,,,,,,,,,,,,,,,,,,,,,,,,,,,,,,,,,,,,,,,,,,,,,,,,,,,,,,,,,,,,,,,,,,,,,,,,,,,,,,,,,,,,,,,,,,,,,,,,394.37773509998806,None,,,,,,,,,,,,,,,,,,,P1,001,2019_Nov_12_1124,test_final,3.1.5,60.01925418360969,
Practice,7,(4x6) - 17,7,,,,,,,,,,,,,,,,,,,,,,,,,,,,,2,0,2,0,3,0,3,0,0,0,0,6,,,,,,,,,,,,,,,,,,,,,,,,,,7,,,,,,,,,,,,,,,,,,,,,,,,,,,,,,,,,,,,,,,,,,,,1,,,,,,,,,,,,,,,,,,,,,,,,,,395.67673010006547,None,['7'],0,[8.414318300085142],395.67673010006547,None,395.67673010006547,None,395.67673010006547,None,404.17739790002815,None,404.17739790002815,None,,,,,,,,,,,,,,,,,,,,,P1,001,2019_Nov_12_1124,test_final,3.1.5,60.01925418360969,
,,,,,,,,,,,,,,,,,,,,,,,,,,,,,,,,2,0,2,0,3,0,3,0,,,,,,,,,,,,,,,,,,,,,,,,,,,,,,,,,,,,,,,,,,,,,,,,,,,,,,,,,,,,,,,,,,,,,,,,,,,,,,,,,,,,,,,,,,,,,,,,,,,,,,,,,,,,,,,,,,,405.53389219997916,None,,,,,,,,,,,,,,,,,,,P1,001,2019_Nov_12_1124,test_final,3.1.5,60.01925418360969,
,,,,,,,,,,,,,,,,,,,,,,,,,,,,,,,,2,0,2,0,,,,,,,,,,,,,,,,,,,,,,,,,,,,,,,,,,,,,,,,,,,,,,,,,,,,,,,,,,,,,,,,,,,,,,,,,,,,,,,,,,,,,,,,,,,,,,,,,,,,,,,,,,,,,,,,,,,,,,,,,vkzj,"['v', 'k', 'z', 'j']",0,"[0.9081846000626683, 1.1715421000262722, 1.5961569000501186, 1.8791973000625148, 2.4808036000467837]",406.81593140005134,None,406.81593140005134,None,1,VKZJ,406.81593140005134,None,,,,,,,P1,001,2019_Nov_12_1124,test_final,3.1.5,60.01925418360969,
Practice,14,(6/3) + 4 ,6,,,,,,,,,,,,,,,,,,,,,,,,,,,,,3,0,3,0,0,0,0,0,0,0,0,13,,,,,,,,,,,,,,,,,,,,,,,,,,6,,,,,,,,,,,,,,,,,,,,,,,,,,,,,,,,,,,,,,,,,,,,1,,,,,,,,,,,,,,,,,,,,,,,,,,409.8795293000294,None,['6'],0,[2.5317824999801815],409.8795293000294,None,409.8795293000294,None,409.8795293000294,None,412.49525020003784,None,412.49525020003784,None,,,,,,,,,,,,,,,,,,,,,P1,001,2019_Nov_12_1124,test_final,3.1.5,60.01925418360969,
,,,,,,,,,,,,,,,,,,,,,,,,,,,,,,,,3,0,3,0,0,0,0,0,,,,,,,,,,,,,,,,,,,,,,,,,,,,,,,,,,,,,,,,,,,,,,,,,,,,,,,,,,,,,,,,,,,,,,,,,,,,,,,,,,,,,,,,,,,,,,,,,,,,,,,,,,,,,,,,,,,413.8423291000072,None,,,,,,,,,,,,,,,,,,,P1,001,2019_Nov_12_1124,test_final,3.1.5,60.01925418360969,
Practice,10,(8/4) + 3,5,,,,,,,,,,,,,,,,,,,,,,,,,,,,,3,0,3,0,1,0,1,0,0,0,0,9,,,,,,,,,,,,,,,,,,,,,,,,,,5,,,,,,,,,,,,,,,,,,,,,,,,,,,,,,,,,,,,,,,,,,,,1,,,,,,,,,,,,,,,,,,,,,,,,,,415.1577003999846,None,['5'],0,[3.6576952000614256],415.1577003999846,None,415.1577003999846,None,415.1577003999846,None,418.89902830007486,None,418.89902830007486,None,,,,,,,,,,,,,,,,,,,,,P1,001,2019_Nov_12_1124,test_final,3.1.5,60.01925418360969,
,,,,,,,,,,,,,,,,,,,,,,,,,,,,,,,,3,0,3,0,1,0,1,0,,,,,,,,,,,,,,,,,,,,,,,,,,,,,,,,,,,,,,,,,,,,,,,,,,,,,,,,,,,,,,,,,,,,,,,,,,,,,,,,,,,,,,,,,,,,,,,,,,,,,,,,,,,,,,,,,,,420.2527735000476,None,,,,,,,,,,,,,,,,,,,P1,001,2019_Nov_12_1124,test_final,3.1.5,60.01925418360969,
Practice,6,(2x6) - 8,4,,,,,,,,,,,,,,,,,,,,,,,,,,,,,3,0,3,0,2,0,2,0,0,0,0,5,,,,,,,,,,,,,,,,,,,,,,,,,,4,,,,,,,,,,,,,,,,,,,,,,,,,,,,,,,,,,,,,,,,,,,,1,,,,,,,,,,,,,,,,,,,,,,,,,,421.5515086000087,None,['4'],0,[4.0782290999777615],421.5515086000087,None,421.5515086000087,None,421.5515086000087,None,425.71069290000014,None,425.71069290000014,None,,,,,,,,,,,,,,,,,,,,,P1,001,2019_Nov_12_1124,test_final,3.1.5,60.01925418360969,
,,,,,,,,,,,,,,,,,,,,,,,,,,,,,,,,3,0,3,0,2,0,2,0,,,,,,,,,,,,,,,,,,,,,,,,,,,,,,,,,,,,,,,,,,,,,,,,,,,,,,,,,,,,,,,,,,,,,,,,,,,,,,,,,,,,,,,,,,,,,,,,,,,,,,,,,,,,,,,,,,,427.0460446999641,None,,,,,,,,,,,,,,,,,,,P1,001,2019_Nov_12_1124,test_final,3.1.5,60.01925418360969,
Practice,11,(5x3) - 7,8,,,,,,,,,,,,,,,,,,,,,,,,,,,,,3,0,3,0,3,0,3,0,0,0,0,10,,,,,,,,,,,,,,,,,,,,,,,,,,8,,,,,,,,,,,,,,,,,,,,,,,,,,,,,,,,,,,,,,,,,,,,1,,,,,,,,,,,,,,,,,,,,,,,,,,428.3781139999628,None,['8'],0,[4.2583054000278935],428.3781139999628,None,428.3781139999628,None,428.3781139999628,None,432.7174503999995,None,432.7174503999995,None,,,,,,,,,,,,,,,,,,,,,P1,001,2019_Nov_12_1124,test_final,3.1.5,60.01925418360969,
,,,,,,,,,,,,,,,,,,,,,,,,,,,,,,,,3,0,3,0,3,0,3,0,,,,,,,,,,,,,,,,,,,,,,,,,,,,,,,,,,,,,,,,,,,,,,,,,,,,,,,,,,,,,,,,,,,,,,,,,,,,,,,,,,,,,,,,,,,,,,,,,,,,,,,,,,,,,,,,,,,434.07250999996904,None,,,,,,,,,,,,,,,,,,,P1,001,2019_Nov_12_1124,test_final,3.1.5,60.01925418360969,
Practice,7,(4x6) - 17,7,,,,,,,,,,,,,,,,,,,,,,,,,,,,,3,0,3,0,4,0,4,0,0,0,0,6,,,,,,,,,,,,,,,,,,,,,,,,,,7,,,,,,,,,,,,,,,,,,,,,,,,,,,,,,,,,,,,,,,,,,,,1,,,,,,,,,,,,,,,,,,,,,,,,,,435.37118570005987,None,['7'],0,[3.7049157000146806],435.37118570005987,None,435.37118570005987,None,435.37118570005987,None,439.14435079996474,None,439.14435079996474,None,,,,,,,,,,,,,,,,,,,,,P1,001,2019_Nov_12_1124,test_final,3.1.5,60.01925418360969,
,,,,,,,,,,,,,,,,,,,,,,,,,,,,,,,,3,0,3,0,4,0,4,0,,,,,,,,,,,,,,,,,,,,,,,,,,,,,,,,,,,,,,,,,,,,,,,,,,,,,,,,,,,,,,,,,,,,,,,,,,,,,,,,,,,,,,,,,,,,,,,,,,,,,,,,,,,,,,,,,,,440.48299739998765,None,,,,,,,,,,,,,,,,,,,P1,001,2019_Nov_12_1124,test_final,3.1.5,60.01925418360969,
,,,,,,,,,,,,,,,,,,,,,,,,,,,,,,,,3,0,3,0,,,,,,,,,,,,,,,,,,,,,,,,,,,,,,,,,,,,,,,,,,,,,,,,,,,,,,,,,,,,,,,,,,,,,,,,,,,,,,,,,,,,,,,,,,,,,,,,,,,,,,,,,,,,,,,,,,,,,,,,,njvrl,"['n', 'j', 'v', 'r', 'l']",0,"[0.8922468000091612, 1.380735700018704, 1.7115109000587836, 1.9471673000371084, 2.1369733000174165, 2.661985900020227]",441.78158539999276,None,441.78158539999276,None,1,NJVRL,441.78158539999276,None,,,,,,,P1,001,2019_Nov_12_1124,test_final,3.1.5,60.01925418360969,
Practice,13,(3x8) - 19 ,5,,,,,,,,,,,,,,,,,,,,,,,,,,,,,4,0,4,0,0,0,0,0,0,0,0,12,,,,,,,,,,,,,,,,,,,,,,,,,,5,,,,,,,,,,,,,,,,,,,,,,,,,,,,,,,,,,,,,,,,,,,,1,,,,,,,,,,,,,,,,,,,,,,,,,,445.0117335000541,None,['5'],0,[3.170197599916719],445.0117335000541,None,445.0117335000541,None,445.0117335000541,None,448.25922680005897,None,448.25922680005897,None,,,,,,,,,,,,,,,,,,,,,P1,001,2019_Nov_12_1124,test_final,3.1.5,60.01925418360969,
,,,,,,,,,,,,,,,,,,,,,,,,,,,,,,,,4,0,4,0,0,0,0,0,,,,,,,,,,,,,,,,,,,,,,,,,,,,,,,,,,,,,,,,,,,,,,,,,,,,,,,,,,,,,,,,,,,,,,,,,,,,,,,,,,,,,,,,,,,,,,,,,,,,,,,,,,,,,,,,,,,449.5906808000291,None,,,,,,,,,,,,,,,,,,,P1,001,2019_Nov_12_1124,test_final,3.1.5,60.01925418360969,
Practice,14,(6/3) + 4 ,6,,,,,,,,,,,,,,,,,,,,,,,,,,,,,4,0,4,0,1,0,1,0,0,0,0,13,,,,,,,,,,,,,,,,,,,,,,,,,,6,,,,,,,,,,,,,,,,,,,,,,,,,,,,,,,,,,,,,,,,,,,,1,,,,,,,,,,,,,,,,,,,,,,,,,,450.9226594000356,None,['6'],0,[2.147647799924016],450.9226594000356,None,450.9226594000356,None,450.9226594000356,None,453.13756780000404,None,453.13756780000404,None,,,,,,,,,,,,,,,,,,,,,P1,001,2019_Nov_12_1124,test_final,3.1.5,60.01925418360969,
,,,,,,,,,,,,,,,,,,,,,,,,,,,,,,,,4,0,4,0,1,0,1,0,,,,,,,,,,,,,,,,,,,,,,,,,,,,,,,,,,,,,,,,,,,,,,,,,,,,,,,,,,,,,,,,,,,,,,,,,,,,,,,,,,,,,,,,,,,,,,,,,,,,,,,,,,,,,,,,,,,454.48588689998724,None,,,,,,,,,,,,,,,,,,,P1,001,2019_Nov_12_1124,test_final,3.1.5,60.01925418360969,
Practice,2,(1/1) - 1,0,,,,,,,,,,,,,,,,,,,,,,,,,,,,,4,0,4,0,2,0,2,0,0,0,0,1,,,,,,,,,,,,,,,,,,,,,,,,,,0,,,,,,,,,,,,,,,,,,,,,,,,,,,,,,,,,,,,,,,,,,,,1,,,,,,,,,,,,,,,,,,,,,,,,,,455.80120180000085,None,['0'],0,[2.7965056999819353],455.80120180000085,None,455.80120180000085,None,455.80120180000085,None,458.6785990999779,None,458.6785990999779,None,,,,,,,,,,,,,,,,,,,,,P1,001,2019_Nov_12_1124,test_final,3.1.5,60.01925418360969,
,,,,,,,,,,,,,,,,,,,,,,,,,,,,,,,,4,0,4,0,2,0,2,0,,,,,,,,,,,,,,,,,,,,,,,,,,,,,,,,,,,,,,,,,,,,,,,,,,,,,,,,,,,,,,,,,,,,,,,,,,,,,,,,,,,,,,,,,,,,,,,,,,,,,,,,,,,,,,,,,,,460.03040020004846,None,,,,,,,,,,,,,,,,,,,P1,001,2019_Nov_12_1124,test_final,3.1.5,60.01925418360969,
Practice,8,(3/3) + 5,6,,,,,,,,,,,,,,,,,,,,,,,,,,,,,4,0,4,0,3,0,3,0,0,0,0,7,,,,,,,,,,,,,,,,,,,,,,,,,,6,,,,,,,,,,,,,,,,,,,,,,,,,,,,,,,,,,,,,,,,,,,,1,,,,,,,,,,,,,,,,,,,,,,,,,,461.32922830001917,None,['6'],0,[2.371466299984604],461.32922830001917,None,461.32922830001917,None,461.32922830001917,None,463.785978000029,None,463.785978000029,None,,,,,,,,,,,,,,,,,,,,,P1,001,2019_Nov_12_1124,test_final,3.1.5,60.01925418360969,
,,,,,,,,,,,,,,,,,,,,,,,,,,,,,,,,4,0,4,0,3,0,3,0,,,,,,,,,,,,,,,,,,,,,,,,,,,,,,,,,,,,,,,,,,,,,,,,,,,,,,,,,,,,,,,,,,,,,,,,,,,,,,,,,,,,,,,,,,,,,,,,,,,,,,,,,,,,,,,,,,,465.1253681000089,None,,,,,,,,,,,,,,,,,,,P1,001,2019_Nov_12_1124,test_final,3.1.5,60.01925418360969,
Practice,11,(5x3) - 7,8,,,,,,,,,,,,,,,,,,,,,,,,,,,,,4,0,4,0,4,0,4,0,0,0,0,10,,,,,,,,,,,,,,,,,,,,,,,,,,8,,,,,,,,,,,,,,,,,,,,,,,,,,,,,,,,,,,,,,,,,,,,1,,,,,,,,,,,,,,,,,,,,,,,,,,466.4573081000708,None,['8'],0,[2.5794812999665737],466.4573081000708,None,466.4573081000708,None,466.4573081000708,None,469.10658140003216,None,469.10658140003216,None,,,,,,,,,,,,,,,,,,,,,P1,001,2019_Nov_12_1124,test_final,3.1.5,60.01925418360969,
,,,,,,,,,,,,,,,,,,,,,,,,,,,,,,,,4,0,4,0,4,0,4,0,,,,,,,,,,,,,,,,,,,,,,,,,,,,,,,,,,,,,,,,,,,,,,,,,,,,,,,,,,,,,,,,,,,,,,,,,,,,,,,,,,,,,,,,,,,,,,,,,,,,,,,,,,,,,,,,,,,470.43686470005196,None,,,,,,,,,,,,,,,,,,,P1,001,2019_Nov_12_1124,test_final,3.1.5,60.01925418360969,
Practice,7,(4x6) - 17,7,,,,,,,,,,,,,,,,,,,,,,,,,,,,,4,0,4,0,5,0,5,0,0,0,0,6,,,,,,,,,,,,,,,,,,,,,,,,,,7,,,,,,,,,,,,,,,,,,,,,,,,,,,,,,,,,,,,,,,,,,,,1,,,,,,,,,,,,,,,,,,,,,,,,,,471.7687346000457,None,['7'],0,[3.1103697000071406],471.7687346000457,None,471.7687346000457,None,471.7687346000457,None,474.966329399962,None,474.966329399962,None,,,,,,,,,,,,,,,,,,,,,P1,001,2019_Nov_12_1124,test_final,3.1.5,60.01925418360969,
,,,,,,,,,,,,,,,,,,,,,,,,,,,,,,,,4,0,4,0,5,0,5,0,,,,,,,,,,,,,,,,,,,,,,,,,,,,,,,,,,,,,,,,,,,,,,,,,,,,,,,,,,,,,,,,,,,,,,,,,,,,,,,,,,,,,,,,,,,,,,,,,,,,,,,,,,,,,,,,,,,476.3145551000489,None,,,,,,,,,,,,,,,,,,,P1,001,2019_Nov_12_1124,test_final,3.1.5,60.01925418360969,
,,,,,,,,,,,,,,,,,,,,,,,,,,,,,,,,4,0,4,0,,,,,,,,,,,,,,,,,,,,,,,,,,,,,,,,,,,,,,,,,,,,,,,,,,,,,,,,,,,,,,,,,,,,,,,,,,,,,,,,,,,,,,,,,,,,,,,,,,,,,,,,,,,,,,,,,,,,,,,,,qzhtrk,"['q', 'z', 'h', 't', 'r', 'k']",0,"[1.333743599941954, 1.682376699987799, 2.0275241000344977, 2.585244599962607, 2.879931299947202, 3.2666668000165373, 4.389831800013781]",477.59664740005974,None,477.59664740005974,None,1,QZHTRK,477.59664740005974,None,,,,,,,P1,001,2019_Nov_12_1124,test_final,3.1.5,60.01925418360969,
Practice,8,(3/3) + 5,6,,,,,,,,,,,,,,,,,,,,,,,,,,,,,5,0,5,0,0,0,0,0,0,0,0,7,,,,,,,,,,,,,,,,,,,,,,,,,,6,,,,,,,,,,,,,,,,,,,,,,,,,,,,,,,,,,,,,,,,,,,,1,,,,,,,,,,,,,,,,,,,,,,,,,,482.5583040000638,None,['6'],0,[2.2887938000494614],482.5583040000638,None,482.5583040000638,None,482.5583040000638,None,484.93639669998083,None,484.93639669998083,None,,,,,,,,,,,,,,,,,,,,,P1,001,2019_Nov_12_1124,test_final,3.1.5,60.01925418360969,
,,,,,,,,,,,,,,,,,,,,,,,,,,,,,,,,5,0,5,0,0,0,0,0,,,,,,,,,,,,,,,,,,,,,,,,,,,,,,,,,,,,,,,,,,,,,,,,,,,,,,,,,,,,,,,,,,,,,,,,,,,,,,,,,,,,,,,,,,,,,,,,,,,,,,,,,,,,,,,,,,,486.2878103000112,None,,,,,,,,,,,,,,,,,,,P1,001,2019_Nov_12_1124,test_final,3.1.5,60.01925418360969,
Practice,14,(6/3) + 4 ,6,,,,,,,,,,,,,,,,,,,,,,,,,,,,,5,0,5,0,1,0,1,0,0,0,0,13,,,,,,,,,,,,,,,,,,,,,,,,,,6,,,,,,,,,,,,,,,,,,,,,,,,,,,,,,,,,,,,,,,,,,,,1,,,,,,,,,,,,,,,,,,,,,,,,,,487.60353750002105,None,['6'],0,[1.6926430000457913],487.60353750002105,None,487.60353750002105,None,487.60353750002105,None,489.38350060000084,None,489.38350060000084,None,,,,,,,,,,,,,,,,,,,,,P1,001,2019_Nov_12_1124,test_final,3.1.5,60.01925418360969,
,,,,,,,,,,,,,,,,,,,,,,,,,,,,,,,,5,0,5,0,1,0,1,0,,,,,,,,,,,,,,,,,,,,,,,,,,,,,,,,,,,,,,,,,,,,,,,,,,,,,,,,,,,,,,,,,,,,,,,,,,,,,,,,,,,,,,,,,,,,,,,,,,,,,,,,,,,,,,,,,,,490.71686150005553,None,,,,,,,,,,,,,,,,,,,P1,001,2019_Nov_12_1124,test_final,3.1.5,60.01925418360969,
Practice,7,(4x6) - 17,7,,,,,,,,,,,,,,,,,,,,,,,,,,,,,5,0,5,0,2,0,2,0,0,0,0,6,,,,,,,,,,,,,,,,,,,,,,,,,,7,,,,,,,,,,,,,,,,,,,,,,,,,,,,,,,,,,,,,,,,,,,,1,,,,,,,,,,,,,,,,,,,,,,,,,,492.0489420000231,None,['7'],0,[2.5636060999240726],492.0489420000231,None,492.0489420000231,None,492.0489420000231,None,494.68734770000447,None,494.68734770000447,None,,,,,,,,,,,,,,,,,,,,,P1,001,2019_Nov_12_1124,test_final,3.1.5,60.01925418360969,
,,,,,,,,,,,,,,,,,,,,,,,,,,,,,,,,5,0,5,0,2,0,2,0,,,,,,,,,,,,,,,,,,,,,,,,,,,,,,,,,,,,,,,,,,,,,,,,,,,,,,,,,,,,,,,,,,,,,,,,,,,,,,,,,,,,,,,,,,,,,,,,,,,,,,,,,,,,,,,,,,,496.0448451000266,None,,,,,,,,,,,,,,,,,,,P1,001,2019_Nov_12_1124,test_final,3.1.5,60.01925418360969,
Practice,3,(7x2) - 5,9,,,,,,,,,,,,,,,,,,,,,,,,,,,,,5,0,5,0,3,0,3,0,0,0,0,2,,,,,,,,,,,,,,,,,,,,,,,,,,9,,,,,,,,,,,,,,,,,,,,,,,,,,,,,,,,,,,,,,,,,,,,1,,,,,,,,,,,,,,,,,,,,,,,,,,497.34377759997733,None,['9'],0,[1.8899312000721693],497.34377759997733,None,497.34377759997733,None,497.34377759997733,None,499.31453870004043,None,499.31453870004043,None,,,,,,,,,,,,,,,,,,,,,P1,001,2019_Nov_12_1124,test_final,3.1.5,60.01925418360969,
,,,,,,,,,,,,,,,,,,,,,,,,,,,,,,,,5,0,5,0,3,0,3,0,,,,,,,,,,,,,,,,,,,,,,,,,,,,,,,,,,,,,,,,,,,,,,,,,,,,,,,,,,,,,,,,,,,,,,,,,,,,,,,,,,,,,,,,,,,,,,,,,,,,,,,,,,,,,,,,,,,500.6404573000036,None,,,,,,,,,,,,,,,,,,,P1,001,2019_Nov_12_1124,test_final,3.1.5,60.01925418360969,
Practice,15,(9/3) - 2,1,,,,,,,,,,,,,,,,,,,,,,,,,,,,,5,0,5,0,4,0,4,0,0,0,0,14,,,,,,,,,,,,,,,,,,,,,,,,,,1,,,,,,,,,,,,,,,,,,,,,,,,,,,,,,,,,,,,,,,,,,,,1,,,,,,,,,,,,,,,,,,,,,,,,,,501.9724982000189,None,['1'],0,[1.9328253000276163],501.9724982000189,None,501.9724982000189,None,501.9724982000189,None,503.99151419999544,None,503.99151419999544,None,,,,,,,,,,,,,,,,,,,,,P1,001,2019_Nov_12_1124,test_final,3.1.5,60.01925418360969,
,,,,,,,,,,,,,,,,,,,,,,,,,,,,,,,,5,0,5,0,4,0,4,0,,,,,,,,,,,,,,,,,,,,,,,,,,,,,,,,,,,,,,,,,,,,,,,,,,,,,,,,,,,,,,,,,,,,,,,,,,,,,,,,,,,,,,,,,,,,,,,,,,,,,,,,,,,,,,,,,,,505.3359166000737,None,,,,,,,,,,,,,,,,,,,P1,001,2019_Nov_12_1124,test_final,3.1.5,60.01925418360969,
Practice,3,(7x2) - 5,9,,,,,,,,,,,,,,,,,,,,,,,,,,,,,5,0,5,0,5,0,5,0,0,0,0,2,,,,,,,,,,,,,,,,,,,,,,,,,,9,,,,,,,,,,,,,,,,,,,,,,,,,,,,,,,,,,,,,,,,,,,,1,,,,,,,,,,,,,,,,,,,,,,,,,,506.65140650002286,None,['9'],0,[2.023466099984944],506.65140650002286,None,506.65140650002286,None,506.65140650002286,None,508.7555129000684,None,508.7555129000684,None,,,,,,,,,,,,,,,,,,,,,P1,001,2019_Nov_12_1124,test_final,3.1.5,60.01925418360969,
,,,,,,,,,,,,,,,,,,,,,,,,,,,,,,,,5,0,5,0,5,0,5,0,,,,,,,,,,,,,,,,,,,,,,,,,,,,,,,,,,,,,,,,,,,,,,,,,,,,,,,,,,,,,,,,,,,,,,,,,,,,,,,,,,,,,,,,,,,,,,,,,,,,,,,,,,,,,,,,,,,510.1148172999965,None,,,,,,,,,,,,,,,,,,,P1,001,2019_Nov_12_1124,test_final,3.1.5,60.01925418360969,
Practice,11,(5x3) - 7,8,,,,,,,,,,,,,,,,,,,,,,,,,,,,,5,0,5,0,6,0,6,0,0,0,0,10,,,,,,,,,,,,,,,,,,,,,,,,,,8,,,,,,,,,,,,,,,,,,,,,,,,,,,,,,,,,,,,,,,,,,,,1,,,,,,,,,,,,,,,,,,,,,,,,,,511.41331540001556,None,['8'],0,[3.7005899000214413],511.41331540001556,None,511.41331540001556,None,511.41331540001556,None,515.2028854000382,None,515.2028854000382,None,,,,,,,,,,,,,,,,,,,,,P1,001,2019_Nov_12_1124,test_final,3.1.5,60.01925418360969,
,,,,,,,,,,,,,,,,,,,,,,,,,,,,,,,,5,0,5,0,6,0,6,0,,,,,,,,,,,,,,,,,,,,,,,,,,,,,,,,,,,,,,,,,,,,,,,,,,,,,,,,,,,,,,,,,,,,,,,,,,,,,,,,,,,,,,,,,,,,,,,,,,,,,,,,,,,,,,,,,,,516.5409893000033,None,,,,,,,,,,,,,,,,,,,P1,001,2019_Nov_12_1124,test_final,3.1.5,60.01925418360969,
,,,,,,,,,,,,,,,,,,,,,,,,,,,,,,,,5,0,5,0,,,,,,,,,,,,,,,,,,,,,,,,,,,,,,,,,,,,,,,,,,,,,,,,,,,,,,,,,,,,,,,,,,,,,,,,,,,,,,,,,,,,,,,,,,,,,,,,,,,,,,,,,,,,,,,,,,,,,,,,,hxnktlj,"['h', 'x', 'n', 'k', 't', 'l', 'j']",0,"[1.2287735000718385, 1.758506300044246, 2.1740046000340953, 2.629039100022055, 3.0474826000863686, 3.4040383000392467, 3.7565475000301376, 4.186925300047733]",517.8398328999756,None,517.8398328999756,None,1,HXNKTLJ,517.8398328999756,None,,,,,,,P1,001,2019_Nov_12_1124,test_final,3.1.5,60.01925418360969,
Practice,3,(7x2) - 5,9,,,,,,,,,,,,,,,,,,,,,,,,,,,,,6,0,6,0,0,0,0,0,0,0,0,2,,,,,,,,,,,,,,,,,,,,,,,,,,9,,,,,,,,,,,,,,,,,,,,,,,,,,,,,,,,,,,,,,,,,,,,1,,,,,,,,,,,,,,,,,,,,,,,,,,522.6019009000156,None,['9'],0,[1.8843061999650672],522.6019009000156,None,522.6019009000156,None,522.6019009000156,None,524.5777381999651,None,524.5777381999651,None,,,,,,,,,,,,,,,,,,,,,P1,001,2019_Nov_12_1124,test_final,3.1.5,60.01925418360969,
,,,,,,,,,,,,,,,,,,,,,,,,,,,,,,,,6,0,6,0,0,0,0,0,,,,,,,,,,,,,,,,,,,,,,,,,,,,,,,,,,,,,,,,,,,,,,,,,,,,,,,,,,,,,,,,,,,,,,,,,,,,,,,,,,,,,,,,,,,,,,,,,,,,,,,,,,,,,,,,,,,525.9151857000543,None,,,,,,,,,,,,,,,,,,,P1,001,2019_Nov_12_1124,test_final,3.1.5,60.01925418360969,
Practice,4,(4x4) - 14,2,,,,,,,,,,,,,,,,,,,,,,,,,,,,,6,0,6,0,1,0,1,0,0,0,0,3,,,,,,,,,,,,,,,,,,,,,,,,,,2,,,,,,,,,,,,,,,,,,,,,,,,,,,,,,,,,,,,,,,,,,,,1,,,,,,,,,,,,,,,,,,,,,,,,,,527.2306147000054,None,['2'],0,[2.6169191000517458],527.2306147000054,None,527.2306147000054,None,527.2306147000054,None,529.9311472000554,None,529.9311472000554,None,,,,,,,,,,,,,,,,,,,,,P1,001,2019_Nov_12_1124,test_final,3.1.5,60.01925418360969,
,,,,,,,,,,,,,,,,,,,,,,,,,,,,,,,,6,0,6,0,1,0,1,0,,,,,,,,,,,,,,,,,,,,,,,,,,,,,,,,,,,,,,,,,,,,,,,,,,,,,,,,,,,,,,,,,,,,,,,,,,,,,,,,,,,,,,,,,,,,,,,,,,,,,,,,,,,,,,,,,,,531.260103299981,None,,,,,,,,,,,,,,,,,,,P1,001,2019_Nov_12_1124,test_final,3.1.5,60.01925418360969,
Practice,12,(8/2) + 4,8,,,,,,,,,,,,,,,,,,,,,,,,,,,,,6,0,6,0,2,0,2,0,0,0,0,11,,,,,,,,,,,,,,,,,,,,,,,,,,8,,,,,,,,,,,,,,,,,,,,,,,,,,,,,,,,,,,,,,,,,,,,1,,,,,,,,,,,,,,,,,,,,,,,,,,532.5758232000517,None,['8'],0,[3.4569461001083255],532.5758232000517,None,532.5758232000517,None,532.5758232000517,None,536.1100019000005,None,536.1100019000005,None,,,,,,,,,,,,,,,,,,,,,P1,001,2019_Nov_12_1124,test_final,3.1.5,60.01925418360969,
,,,,,,,,,,,,,,,,,,,,,,,,,,,,,,,,6,0,6,0,2,0,2,0,,,,,,,,,,,,,,,,,,,,,,,,,,,,,,,,,,,,,,,,,,,,,,,,,,,,,,,,,,,,,,,,,,,,,,,,,,,,,,,,,,,,,,,,,,,,,,,,,,,,,,,,,,,,,,,,,,,537.4377428999869,None,,,,,,,,,,,,,,,,,,,P1,001,2019_Nov_12_1124,test_final,3.1.5,60.01925418360969,
Practice,14,(6/3) + 4 ,6,,,,,,,,,,,,,,,,,,,,,,,,,,,,,6,0,6,0,3,0,3,0,0,0,0,13,,,,,,,,,,,,,,,,,,,,,,,,,,6,,,,,,,,,,,,,,,,,,,,,,,,,,,,,,,,,,,,,,,,,,,,1,,,,,,,,,,,,,,,,,,,,,,,,,,538.7698881999822,None,['6'],0,[1.5783192000817508],538.7698881999822,None,538.7698881999822,None,538.7698881999822,None,540.432153700036,None,540.432153700036,None,,,,,,,,,,,,,,,,,,,,,P1,001,2019_Nov_12_1124,test_final,3.1.5,60.01925418360969,
,,,,,,,,,,,,,,,,,,,,,,,,,,,,,,,,6,0,6,0,3,0,3,0,,,,,,,,,,,,,,,,,,,,,,,,,,,,,,,,,,,,,,,,,,,,,,,,,,,,,,,,,,,,,,,,,,,,,,,,,,,,,,,,,,,,,,,,,,,,,,,,,,,,,,,,,,,,,,,,,,,541.7669156000484,None,,,,,,,,,,,,,,,,,,,P1,001,2019_Nov_12_1124,test_final,3.1.5,60.01925418360969,
Practice,3,(7x2) - 5,9,,,,,,,,,,,,,,,,,,,,,,,,,,,,,6,0,6,0,4,0,4,0,0,0,0,2,,,,,,,,,,,,,,,,,,,,,,,,,,9,,,,,,,,,,,,,,,,,,,,,,,,,,,,,,,,,,,,,,,,,,,,1,,,,,,,,,,,,,,,,,,,,,,,,,,543.0986082999734,None,['9'],0,[3.611818900099024],543.0986082999734,None,543.0986082999734,None,543.0986082999734,None,546.7904178000754,None,546.7904178000754,None,,,,,,,,,,,,,,,,,,,,,P1,001,2019_Nov_12_1124,test_final,3.1.5,60.01925418360969,
,,,,,,,,,,,,,,,,,,,,,,,,,,,,,,,,6,0,6,0,4,0,4,0,,,,,,,,,,,,,,,,,,,,,,,,,,,,,,,,,,,,,,,,,,,,,,,,,,,,,,,,,,,,,,,,,,,,,,,,,,,,,,,,,,,,,,,,,,,,,,,,,,,,,,,,,,,,,,,,,,,548.1439674000721,None,,,,,,,,,,,,,,,,,,,P1,001,2019_Nov_12_1124,test_final,3.1.5,60.01925418360969,
Practice,8,(3/3) + 5,6,,,,,,,,,,,,,,,,,,,,,,,,,,,,,6,0,6,0,5,0,5,0,0,0,0,7,,,,,,,,,,,,,,,,,,,,,,,,,,6,,,,,,,,,,,,,,,,,,,,,,,,,,,,,,,,,,,,,,,,,,,,1,,,,,,,,,,,,,,,,,,,,,,,,,,549.459610800026,None,['6'],0,[2.1053288999246433],549.459610800026,None,549.459610800026,None,549.459610800026,None,551.6565179000609,None,551.6565179000609,None,,,,,,,,,,,,,,,,,,,,,P1,001,2019_Nov_12_1124,test_final,3.1.5,60.01925418360969,
,,,,,,,,,,,,,,,,,,,,,,,,,,,,,,,,6,0,6,0,5,0,5,0,,,,,,,,,,,,,,,,,,,,,,,,,,,,,,,,,,,,,,,,,,,,,,,,,,,,,,,,,,,,,,,,,,,,,,,,,,,,,,,,,,,,,,,,,,,,,,,,,,,,,,,,,,,,,,,,,,,553.0053937999764,None,,,,,,,,,,,,,,,,,,,P1,001,2019_Nov_12_1124,test_final,3.1.5,60.01925418360969,
Practice,13,(3x8) - 19 ,5,,,,,,,,,,,,,,,,,,,,,,,,,,,,,6,0,6,0,6,0,6,0,0,0,0,12,,,,,,,,,,,,,,,,,,,,,,,,,,5,,,,,,,,,,,,,,,,,,,,,,,,,,,,,,,,,,,,,,,,,,,,1,,,,,,,,,,,,,,,,,,,,,,,,,,554.3211624000687,None,['5'],0,[4.186620999942534],554.3211624000687,None,554.3211624000687,None,554.3211624000687,None,558.6128686000593,None,558.6128686000593,None,,,,,,,,,,,,,,,,,,,,,P1,001,2019_Nov_12_1124,test_final,3.1.5,60.01925418360969,
,,,,,,,,,,,,,,,,,,,,,,,,,,,,,,,,6,0,6,0,6,0,6,0,,,,,,,,,,,,,,,,,,,,,,,,,,,,,,,,,,,,,,,,,,,,,,,,,,,,,,,,,,,,,,,,,,,,,,,,,,,,,,,,,,,,,,,,,,,,,,,,,,,,,,,,,,,,,,,,,,,559.9657039999729,None,,,,,,,,,,,,,,,,,,,P1,001,2019_Nov_12_1124,test_final,3.1.5,60.01925418360969,
Practice,9,(4/2) + 5,7,,,,,,,,,,,,,,,,,,,,,,,,,,,,,6,0,6,0,7,0,7,0,0,0,0,8,,,,,,,,,,,,,,,,,,,,,,,,,,7,,,,,,,,,,,,,,,,,,,,,,,,,,,,,,,,,,,,,,,,,,,,1,,,,,,,,,,,,,,,,,,,,,,,,,,561.2809093999676,None,['7'],0,[2.841625200002454],561.2809093999676,None,561.2809093999676,None,561.2809093999676,None,564.2060359000461,None,564.2060359000461,None,,,,,,,,,,,,,,,,,,,,,P1,001,2019_Nov_12_1124,test_final,3.1.5,60.01925418360969,
,,,,,,,,,,,,,,,,,,,,,,,,,,,,,,,,6,0,6,0,7,0,7,0,,,,,,,,,,,,,,,,,,,,,,,,,,,,,,,,,,,,,,,,,,,,,,,,,,,,,,,,,,,,,,,,,,,,,,,,,,,,,,,,,,,,,,,,,,,,,,,,,,,,,,,,,,,,,,,,,,,565.5598515999736,None,,,,,,,,,,,,,,,,,,,P1,001,2019_Nov_12_1124,test_final,3.1.5,60.01925418360969,
,,,,,,,,,,,,,,,,,,,,,,,,,,,,,,,,6,0,6,0,,,,,,,,,,,,,,,,,,,,,,,,,,,,,,,,,,,,,,,,,,,,,,,,,,,,,,,,,,,,,,,,,,,,,,,,,,,,,,,,,,,,,,,,,,,,,,,,,,,,,,,,,,,,,,,,,,,,,,,,,nqkshjtz,"['n', 'q', 'k', 's', 'h', 'j', 't', 'z']",0,"[1.0802251000422984, 1.5965602999785915, 2.647477600025013, 3.068179600057192, 3.8990891000721604, 4.989774700021371, 5.936560400063172, 6.320321900071576, 6.9286407000618055]",566.8424425000558,None,566.8424425000558,None,0,NQKSJHTZ,566.8424425000558,None,,,,,,,P1,001,2019_Nov_12_1124,test_final,3.1.5,60.01925418360969,
Practice,14,(6/3) + 4 ,6,,,,,,,,,,,,,,,,,,,,,,,,,,,,,7,0,7,0,0,0,0,0,0,0,0,13,,,,,,,,,,,,,,,,,,,,,,,,,,7,,,,,,,,,,,,,,,,,,,,,,,,,,,,,,,,,,,,,,,,,,,,0,,,,,,,,,,,,,,,,,,,,,,,,,,574.3682548999786,None,['7'],0,[3.973467499949038],574.3682548999786,None,574.3682548999786,None,574.3682548999786,None,578.43956660002,None,578.43956660002,None,,,,,,,,,,,,,,,,,,,,,P1,001,2019_Nov_12_1124,test_final,3.1.5,60.01925418360969,
Practice,6,(2x6) - 8,4,,,,,,,,,,,,,,,,,,,,,,,,,,,,,7,0,7,0,0,0,0,0,0,1,1,5,,,,,,,,,,,,,,,,,,,,,,,,,,4,,,,,,,,,,,,,,,,,,,,,,,,,,,,,,,,,,,,,,,,,,,,1,,,,,,,,,,,,,,,,,,,,,,,,,,579.7796145000029,None,['4'],0,[4.013577800011262],579.7796145000029,None,579.7796145000029,None,579.7796145000029,None,583.8594272000482,None,583.8594272000482,None,,,,,,,,,,,,,,,,,,,,,P1,001,2019_Nov_12_1124,test_final,3.1.5,60.01925418360969,
,,,,,,,,,,,,,,,,,,,,,,,,,,,,,,,,7,0,7,0,0,0,0,0,,,,,,,,,,,,,,,,,,,,,,,,,,,,,,,,,,,,,,,,,,,,,,,,,,,,,,,,,,,,,,,,,,,,,,,,,,,,,,,,,,,,,,,,,,,,,,,,,,,,,,,,,,,,,,,,,,,585.1742912000045,None,,,,,,,,,,,,,,,,,,,P1,001,2019_Nov_12_1124,test_final,3.1.5,60.01925418360969,
Practice,4,(4x4) - 14,2,,,,,,,,,,,,,,,,,,,,,,,,,,,,,7,0,7,0,1,0,1,0,0,0,0,3,,,,,,,,,,,,,,,,,,,,,,,,,,2,,,,,,,,,,,,,,,,,,,,,,,,,,,,,,,,,,,,,,,,,,,,1,,,,,,,,,,,,,,,,,,,,,,,,,,586.5064417000394,None,['2'],0,[1.9477929000277072],586.5064417000394,None,586.5064417000394,None,586.5064417000394,None,588.5412195000099,None,588.5412195000099,None,,,,,,,,,,,,,,,,,,,,,P1,001,2019_Nov_12_1124,test_final,3.1.5,60.01925418360969,
,,,,,,,,,,,,,,,,,,,,,,,,,,,,,,,,7,0,7,0,1,0,1,0,,,,,,,,,,,,,,,,,,,,,,,,,,,,,,,,,,,,,,,,,,,,,,,,,,,,,,,,,,,,,,,,,,,,,,,,,,,,,,,,,,,,,,,,,,,,,,,,,,,,,,,,,,,,,,,,,,,589.8696144999703,None,,,,,,,,,,,,,,,,,,,P1,001,2019_Nov_12_1124,test_final,3.1.5,60.01925418360969,
Practice,15,(9/3) - 2,1,,,,,,,,,,,,,,,,,,,,,,,,,,,,,7,0,7,0,2,0,2,0,0,0,0,14,,,,,,,,,,,,,,,,,,,,,,,,,,1,,,,,,,,,,,,,,,,,,,,,,,,,,,,,,,,,,,,,,,,,,,,1,,,,,,,,,,,,,,,,,,,,,,,,,,591.2017051000148,None,['1'],0,[1.732184199965559],591.2017051000148,None,591.2017051000148,None,591.2017051000148,None,593.0151009999681,None,593.0151009999681,None,,,,,,,,,,,,,,,,,,,,,P1,001,2019_Nov_12_1124,test_final,3.1.5,60.01925418360969,
,,,,,,,,,,,,,,,,,,,,,,,,,,,,,,,,7,0,7,0,2,0,2,0,,,,,,,,,,,,,,,,,,,,,,,,,,,,,,,,,,,,,,,,,,,,,,,,,,,,,,,,,,,,,,,,,,,,,,,,,,,,,,,,,,,,,,,,,,,,,,,,,,,,,,,,,,,,,,,,,,,594.3486095999833,None,,,,,,,,,,,,,,,,,,,P1,001,2019_Nov_12_1124,test_final,3.1.5,60.01925418360969,
Practice,3,(7x2) - 5,9,,,,,,,,,,,,,,,,,,,,,,,,,,,,,7,0,7,0,3,0,3,0,0,0,0,2,,,,,,,,,,,,,,,,,,,,,,,,,,9,,,,,,,,,,,,,,,,,,,,,,,,,,,,,,,,,,,,,,,,,,,,1,,,,,,,,,,,,,,,,,,,,,,,,,,595.6807674000738,None,['9'],0,[2.5941601999802515],595.6807674000738,None,595.6807674000738,None,595.6807674000738,None,598.369680200005,None,598.369680200005,None,,,,,,,,,,,,,,,,,,,,,P1,001,2019_Nov_12_1124,test_final,3.1.5,60.01925418360969,
,,,,,,,,,,,,,,,,,,,,,,,,,,,,,,,,7,0,7,0,3,0,3,0,,,,,,,,,,,,,,,,,,,,,,,,,,,,,,,,,,,,,,,,,,,,,,,,,,,,,,,,,,,,,,,,,,,,,,,,,,,,,,,,,,,,,,,,,,,,,,,,,,,,,,,,,,,,,,,,,,,599.7099851999665,None,,,,,,,,,,,,,,,,,,,P1,001,2019_Nov_12_1124,test_final,3.1.5,60.01925418360969,
Practice,11,(5x3) - 7,8,,,,,,,,,,,,,,,,,,,,,,,,,,,,,7,0,7,0,4,0,4,0,0,0,0,10,,,,,,,,,,,,,,,,,,,,,,,,,,8,,,,,,,,,,,,,,,,,,,,,,,,,,,,,,,,,,,,,,,,,,,,1,,,,,,,,,,,,,,,,,,,,,,,,,,601.0251827000175,None,['8'],0,[2.1552535999799147],601.0251827000175,None,601.0251827000175,None,601.0251827000175,None,603.2922397999791,None,603.2922397999791,None,,,,,,,,,,,,,,,,,,,,,P1,001,2019_Nov_12_1124,test_final,3.1.5,60.01925418360969,
,,,,,,,,,,,,,,,,,,,,,,,,,,,,,,,,7,0,7,0,4,0,4,0,,,,,,,,,,,,,,,,,,,,,,,,,,,,,,,,,,,,,,,,,,,,,,,,,,,,,,,,,,,,,,,,,,,,,,,,,,,,,,,,,,,,,,,,,,,,,,,,,,,,,,,,,,,,,,,,,,,604.6215979000553,None,,,,,,,,,,,,,,,,,,,P1,001,2019_Nov_12_1124,test_final,3.1.5,60.01925418360969,
Practice,6,(2x6) - 8,4,,,,,,,,,,,,,,,,,,,,,,,,,,,,,7,0,7,0,5,0,5,0,0,0,0,5,,,,,,,,,,,,,,,,,,,,,,,,,,4,,,,,,,,,,,,,,,,,,,,,,,,,,,,,,,,,,,,,,,,,,,,1,,,,,,,,,,,,,,,,,,,,,,,,,,605.9872839000309,None,['4'],0,[4.391717599937692],605.9872839000309,None,605.9872839000309,None,605.9872839000309,None,610.4477248999756,None,610.4477248999756,None,,,,,,,,,,,,,,,,,,,,,P1,001,2019_Nov_12_1124,test_final,3.1.5,60.01925418360969,
,,,,,,,,,,,,,,,,,,,,,,,,,,,,,,,,7,0,7,0,5,0,5,0,,,,,,,,,,,,,,,,,,,,,,,,,,,,,,,,,,,,,,,,,,,,,,,,,,,,,,,,,,,,,,,,,,,,,,,,,,,,,,,,,,,,,,,,,,,,,,,,,,,,,,,,,,,,,,,,,,,611.7981621000217,None,,,,,,,,,,,,,,,,,,,P1,001,2019_Nov_12_1124,test_final,3.1.5,60.01925418360969,
Practice,6,(2x6) - 8,4,,,,,,,,,,,,,,,,,,,,,,,,,,,,,7,0,7,0,6,0,6,0,0,0,0,5,,,,,,,,,,,,,,,,,,,,,,,,,,4,,,,,,,,,,,,,,,,,,,,,,,,,,,,,,,,,,,,,,,,,,,,1,,,,,,,,,,,,,,,,,,,,,,,,,,613.1133838000242,None,['4'],0,[2.242374400026165],613.1133838000242,None,613.1133838000242,None,613.1133838000242,None,615.4422605000436,None,615.4422605000436,None,,,,,,,,,,,,,,,,,,,,,P1,001,2019_Nov_12_1124,test_final,3.1.5,60.01925418360969,
,,,,,,,,,,,,,,,,,,,,,,,,,,,,,,,,7,0,7,0,6,0,6,0,,,,,,,,,,,,,,,,,,,,,,,,,,,,,,,,,,,,,,,,,,,,,,,,,,,,,,,,,,,,,,,,,,,,,,,,,,,,,,,,,,,,,,,,,,,,,,,,,,,,,,,,,,,,,,,,,,,616.7763558999868,None,,,,,,,,,,,,,,,,,,,P1,001,2019_Nov_12_1124,test_final,3.1.5,60.01925418360969,
Practice,5,(3/3) + 2,3,,,,,,,,,,,,,,,,,,,,,,,,,,,,,7,0,7,0,7,0,7,0,0,0,0,4,,,,,,,,,,,,,,,,,,,,,,,,,,3,,,,,,,,,,,,,,,,,,,,,,,,,,,,,,,,,,,,,,,,,,,,1,,,,,,,,,,,,,,,,,,,,,,,,,,618.0920780000743,None,['3'],0,[1.9091611000476405],618.0920780000743,None,618.0920780000743,None,618.0920780000743,None,620.0876561000478,None,620.0876561000478,None,,,,,,,,,,,,,,,,,,,,,P1,001,2019_Nov_12_1124,test_final,3.1.5,60.01925418360969,
,,,,,,,,,,,,,,,,,,,,,,,,,,,,,,,,7,0,7,0,7,0,7,0,,,,,,,,,,,,,,,,,,,,,,,,,,,,,,,,,,,,,,,,,,,,,,,,,,,,,,,,,,,,,,,,,,,,,,,,,,,,,,,,,,,,,,,,,,,,,,,,,,,,,,,,,,,,,,,,,,,621.4384704000549,None,,,,,,,,,,,,,,,,,,,P1,001,2019_Nov_12_1124,test_final,3.1.5,60.01925418360969,
,,,,,,,,,,,,,,,,,,,,,,,,,,,,,,,,7,0,7,0,,,,,,,,,,,,,,,,,,,,,,,,,,,,,,,,,,,,,,,,,,,,,,,,,,,,,,,,,,,,,,,,,,,,,,,,,,,,,,,,,,,,,,,,,,,,,,,,,,,,,,,,,,,,,,,,,,,,,,,,,qztshrl,"['q', 'z', 't', 's', 'h', 'r', 'l']",0,"[1.5649064000463113, 1.8791491000447422, 2.3817109999945387, 2.9759897000622004, 3.6543849000008777, 4.208308600005694, 4.636535900062881, 5.0282344000879675]",622.7203489000676,None,622.7203489000676,None,0,QZTSHRVL,622.7203489000676,None,,,,,,,P1,001,2019_Nov_12_1124,test_final,3.1.5,60.01925418360969,
,,,,,,,,,,,,,,,,,,,,,,,,,,,,,,,,,,,,,,,,,,,,,,,,,,,,,,,,,,,,,,,,,,,,,,,,,,,,,,,,,,,,,,,,,,,,,,,,,,,,,,,,,,,,,,,,,,,,,,,,,,,,,,,,,,,,,,,,,,,,,,,,,,,,,,,,,,,,,,,,,,,,,,,,628.2990888999775,None,space,10.876124599948525,628.2990888999775,None,P1,001,2019_Nov_12_1124,test_final,3.1.5,60.01925418360969,
