Task,Trial,Problem,Operation_answer,next_level.thisRepN,next_level.thisTrialN,next_level.thisN,next_level.thisIndex,next_letter.thisRepN,next_letter.thisTrialN,next_letter.thisN,next_letter.thisIndex,repeat_practice.thisRepN,repeat_practice.thisTrialN,repeat_practice.thisN,repeat_practice.thisIndex,trials.thisRepN,trials.thisTrialN,trials.thisN,trials.thisIndex,span_recall_prac.thisRepN,span_recall_prac.thisTrialN,span_recall_prac.thisN,span_recall_prac.thisIndex,span_size_prac.thisRepN,span_size_prac.thisTrialN,span_size_prac.thisN,span_size_prac.thisIndex,repeat_if_wrong_prac.thisRepN,repeat_if_wrong_prac.thisTrialN,repeat_if_wrong_prac.thisN,repeat_if_wrong_prac.thisIndex,span_recall.thisRepN,span_recall.thisTrialN,span_recall.thisN,span_recall.thisIndex,span_size.thisRepN,span_size.thisTrialN,span_size.thisN,span_size.thisIndex,repeat_if_wrong.thisRepN,repeat_if_wrong.thisTrialN,repeat_if_wrong.thisN,repeat_if_wrong.thisIndex,instructions_2.started,instructions_2.stopped,key_resp_4.keys,key_resp_4.rt,key_resp_4.started,key_resp_4.stopped,text_2.started,text_2.stopped,simple_recall,key_resp_5.keys,key_resp_5.rt,key_resp_5.started,key_resp_5.stopped,text_feedback.started,text_feedback.stopped,simple_recall_corr,simple_recall_corrkeys,instructions_3.started,instructions_3.stopped,instructions.started,instructions.stopped,key_resp_2.keys,key_resp_2.rt,key_resp_2.started,key_resp_2.stopped,digit_answer,operation.started,operation.stopped,key_resp.keys,key_resp.corr,key_resp.rt,key_resp.started,key_resp.stopped,operation_feedback.started,operation_feedback.stopped,RT_list,instructions_8.started,instructions_8.stopped,feedback_msg.started,feedback_msg.stopped,processing_score,sumRT,meanRT,sumdiff,sd,RT,feedback_msg_2.started,feedback_msg_2.stopped,key_resp_3.keys,key_resp_3.rt,key_resp_3.started,key_resp_3.stopped,instructions_4.started,instructions_4.stopped,key_resp_6.keys,key_resp_6.rt,key_resp_6.started,key_resp_6.stopped,operation_3.started,operation_3.stopped,key_resp_11.keys,key_resp_11.corr,key_resp_11.rt,key_resp_11.started,key_resp_11.stopped,operation_feedback_2.started,operation_feedback_2.stopped,instructions_9.started,instructions_9.stopped,operation_correct,feedback_msg_4.started,feedback_msg_4.stopped,operation_4.started,operation_4.stopped,text_3.started,text_3.stopped,complex_recall_prac,key_resp_9.keys,key_resp_9.corr,key_resp_9.rt,key_resp_9.started,key_resp_9.stopped,text_feedback_3.started,text_feedback_3.stopped,instructions_6.started,instructions_6.stopped,complex_prac_corr,feedback_msg_3.started,feedback_msg_3.stopped,instructions_7.started,instructions_7.stopped,key_resp_10.keys,key_resp_10.rt,key_resp_10.started,key_resp_10.stopped,operation_2.started,operation_2.stopped,key_resp_7.keys,key_resp_7.corr,key_resp_7.rt,key_resp_7.started,key_resp_7.stopped,operation_feedback_3.started,operation_feedback_3.stopped,instructions_10.started,instructions_10.stopped,feedback_msg_5.started,feedback_msg_5.stopped,operation_5.started,operation_5.stopped,text.started,text.stopped,complex_recall,key_resp_8.keys,key_resp_8.corr,key_resp_8.rt,key_resp_8.started,key_resp_8.stopped,text_feedback_2.started,text_feedback_2.stopped,complex_recall_corr,complex_recall_corrkeys,instructions_5.started,instructions_5.stopped,participant,session,date,expName,psychopyVersion,frameRate,
,,,,,,,,,,,,,,,,,,,,,,,,,,,,,,,,,,,,,,,,,,,,17.809576999978162,None,space,21.52127470006235,17.809576999978162,None,,,,,,,,,,,,,,,,,,,,,,,,,,,,,,,,,,,,,,,,,,,,,,,,,,,,,,,,,,,,,,,,,,,,,,,,,,,,,,,,,,,,,,,,,,,,,,,,,,,,,,,,,,,,,,,,,,,,,,,P2,001,2019_Nov_12_1616,test_final,3.1.5,60.17383016724645,
,,,,0,0,0,0,0,0,0,0,,,,,,,,,,,,,,,,,,,,,,,,,,,,,,,,,,,,,,,39.89031629997771,None,,,,,,,,,,,,,,,,,,,,,,,,,,,,,,,,,,,,,,,,,,,,,,,,,,,,,,,,,,,,,,,,,,,,,,,,,,,,,,,,,,,,,,,,,,,,,,,,,,,,,,,,,,,,,,,,,,,,,P2,001,2019_Nov_12_1616,test_final,3.1.5,60.17383016724645,
,,,,0,0,0,0,1,0,1,0,,,,,,,,,,,,,,,,,,,,,,,,,,,,,,,,,,,,,,,41.188660399988294,None,,,,,,,,,,,,,,,,,,,,,,,,,,,,,,,,,,,,,,,,,,,,,,,,,,,,,,,,,,,,,,,,,,,,,,,,,,,,,,,,,,,,,,,,,,,,,,,,,,,,,,,,,,,,,,,,,,,,,P2,001,2019_Nov_12_1616,test_final,3.1.5,60.17383016724645,
,,,,1,0,1,0,0,0,0,0,,,,,,,,,,,,,,,,,,,,,,,,,,,,,,,,,,,,,,,46.56710899993777,None,xh,"['x', 'h']","[2.622391000040807, 2.75744419998955, 3.51402679993771]",42.48770850000437,None,42.48770850000437,None,1,XH,42.48770850000437,None,,,,,,,,,,,,,,,,,,,,,,,,,,,,,,,,,,,,,,,,,,,,,,,,,,,,,,,,,,,,,,,,,,,,,,,,,,,,,,,,,,,,,,,,,,,,,,,,,,,,,,,,,,P2,001,2019_Nov_12_1616,test_final,3.1.5,60.17383016724645,
,,,,1,0,1,0,1,0,1,0,,,,,,,,,,,,,,,,,,,,,,,,,,,,,,,,,,,,,,,47.86561650002841,None,,,,,,,,,,,,,,,,,,,,,,,,,,,,,,,,,,,,,,,,,,,,,,,,,,,,,,,,,,,,,,,,,,,,,,,,,,,,,,,,,,,,,,,,,,,,,,,,,,,,,,,,,,,,,,,,,,,,,P2,001,2019_Nov_12_1616,test_final,3.1.5,60.17383016724645,
,,,,2,0,2,0,0,0,0,0,,,,,,,,,,,,,,,,,,,,,,,,,,,,,,,,,,,,,,,52.195289699942805,None,jl,"['j', 'l']","[1.1599459999706596, 1.2712953999871388, 2.473905300023034]",49.16497959999833,None,49.16497959999833,None,1,JL,49.16497959999833,None,,,,,,,,,,,,,,,,,,,,,,,,,,,,,,,,,,,,,,,,,,,,,,,,,,,,,,,,,,,,,,,,,,,,,,,,,,,,,,,,,,,,,,,,,,,,,,,,,,,,,,,,,,P2,001,2019_Nov_12_1616,test_final,3.1.5,60.17383016724645,
,,,,2,0,2,0,1,0,1,0,,,,,,,,,,,,,,,,,,,,,,,,,,,,,,,,,,,,,,,53.51011219993234,None,,,,,,,,,,,,,,,,,,,,,,,,,,,,,,,,,,,,,,,,,,,,,,,,,,,,,,,,,,,,,,,,,,,,,,,,,,,,,,,,,,,,,,,,,,,,,,,,,,,,,,,,,,,,,,,,,,,,,P2,001,2019_Nov_12_1616,test_final,3.1.5,60.17383016724645,
,,,,2,0,2,0,2,0,2,0,,,,,,,,,,,,,,,,,,,,,,,,,,,,,,,,,,,,,,,54.80917080002837,None,,,,,,,,,,,,,,,,,,,,,,,,,,,,,,,,,,,,,,,,,,,,,,,,,,,,,,,,,,,,,,,,,,,,,,,,,,,,,,,,,,,,,,,,,,,,,,,,,,,,,,,,,,,,,,,,,,,,,P2,001,2019_Nov_12_1616,test_final,3.1.5,60.17383016724645,
,,,,3,0,3,0,0,0,0,0,,,,,,,,,,,,,,,,,,,,,,,,,,,,,,,,,,,,,,,58.1726548000006,None,sjl,"['s', 'j', 'l']","[0.8357230999972671, 1.0195190999656916, 1.1366906999610364, 1.5048034000210464]",56.10799439996481,None,56.10799439996481,None,1,SJL,56.10799439996481,None,,,,,,,,,,,,,,,,,,,,,,,,,,,,,,,,,,,,,,,,,,,,,,,,,,,,,,,,,,,,,,,,,,,,,,,,,,,,,,,,,,,,,,,,,,,,,,,,,,,,,,,,,,P2,001,2019_Nov_12_1616,test_final,3.1.5,60.17383016724645,
,,,,3,0,3,0,1,0,1,0,,,,,,,,,,,,,,,,,,,,,,,,,,,,,,,,,,,,,,,59.47115919995122,58.96526969992556,,,,,,,,,,,,,,,,,,,,,,,,,,,,,,,,,,,,,,,,,,,,,,,,,,,,,,,,,,,,,,,,,,,,,,,,,,,,,,,,,,,,,,,,,,,,,,,,,,,,,,,,,,,,,,,,,,,,,P2,001,2019_Nov_12_1616,test_final,3.1.5,60.17383016724645,
,,,,3,0,3,0,2,0,2,0,,,,,,,,,,,,,,,,,,,,,,,,,,,,,,,,,,,,,,,60.769736899994314,60.25338349991944,,,,,,,,,,,,,,,,,,,,,,,,,,,,,,,,,,,,,,,,,,,,,,,,,,,,,,,,,,,,,,,,,,,,,,,,,,,,,,,,,,,,,,,,,,,,,,,,,,,,,,,,,,,,,,,,,,,,,P2,001,2019_Nov_12_1616,test_final,3.1.5,60.17383016724645,
,,,,4,0,4,0,0,0,0,0,,,,,,,,,,,,,,,,,,,,,,,,,,,,,,,,,,,,,,,64.68268620001618,None,srz,"['s', 'r', 'z']","[1.2745238000061363, 1.354136300040409, 1.5199238000204787, 2.051815400016494]",62.06876109994482,None,62.06876109994482,None,1,SRZ,62.06876109994482,None,,,,,,,,,,,,,,,,,,,,,,,,,,,,,,,,,,,,,,,,,,,,,,,,,,,,,,,,,,,,,,,,,,,,,,,,,,,,,,,,,,,,,,,,,,,,,,,,,,,,,,,,,,P2,001,2019_Nov_12_1616,test_final,3.1.5,60.17383016724645,
,,,,4,0,4,0,1,0,1,0,,,,,,,,,,,,,,,,,,,,,,,,,,,,,,,,,,,,,,,65.99847460002638,None,,,,,,,,,,,,,,,,,,,,,,,,,,,,,,,,,,,,,,,,,,,,,,,,,,,,,,,,,,,,,,,,,,,,,,,,,,,,,,,,,,,,,,,,,,,,,,,,,,,,,,,,,,,,,,,,,,,,,P2,001,2019_Nov_12_1616,test_final,3.1.5,60.17383016724645,
,,,,4,0,4,0,2,0,2,0,,,,,,,,,,,,,,,,,,,,,,,,,,,,,,,,,,,,,,,67.29677140002605,None,,,,,,,,,,,,,,,,,,,,,,,,,,,,,,,,,,,,,,,,,,,,,,,,,,,,,,,,,,,,,,,,,,,,,,,,,,,,,,,,,,,,,,,,,,,,,,,,,,,,,,,,,,,,,,,,,,,,,P2,001,2019_Nov_12_1616,test_final,3.1.5,60.17383016724645,
,,,,4,0,4,0,3,0,3,0,,,,,,,,,,,,,,,,,,,,,,,,,,,,,,,,,,,,,,,68.59573930001352,None,,,,,,,,,,,,,,,,,,,,,,,,,,,,,,,,,,,,,,,,,,,,,,,,,,,,,,,,,,,,,,,,,,,,,,,,,,,,,,,,,,,,,,,,,,,,,,,,,,,,,,,,,,,,,,,,,,,,,P2,001,2019_Nov_12_1616,test_final,3.1.5,60.17383016724645,
,,,,5,0,5,0,0,0,0,0,,,,,,,,,,,,,,,,,,,,,,,,,,,,,,,,,,,,,,,72.34186789998785,None,xkjt,"['x', 'k', 'j', 't']","[1.0896471999585629, 1.2256982000544667, 1.402687399997376, 1.5968916000565514, 1.8924083999590948]",69.8942587999627,None,69.8942587999627,None,1,XKJT,69.8942587999627,None,,,,,,,,,,,,,,,,,,,,,,,,,,,,,,,,,,,,,,,,,,,,,,,,,,,,,,,,,,,,,,,,,,,,,,,,,,,,,,,,,,,,,,,,,,,,,,,,,,,,,,,,,,P2,001,2019_Nov_12_1616,test_final,3.1.5,60.17383016724645,
,,,,5,0,5,0,1,0,1,0,,,,,,,,,,,,,,,,,,,,,,,,,,,,,,,,,,,,,,,73.65730449999683,None,,,,,,,,,,,,,,,,,,,,,,,,,,,,,,,,,,,,,,,,,,,,,,,,,,,,,,,,,,,,,,,,,,,,,,,,,,,,,,,,,,,,,,,,,,,,,,,,,,,,,,,,,,,,,,,,,,,,,P2,001,2019_Nov_12_1616,test_final,3.1.5,60.17383016724645,
,,,,5,0,5,0,2,0,2,0,,,,,,,,,,,,,,,,,,,,,,,,,,,,,,,,,,,,,,,74.95608699996956,None,,,,,,,,,,,,,,,,,,,,,,,,,,,,,,,,,,,,,,,,,,,,,,,,,,,,,,,,,,,,,,,,,,,,,,,,,,,,,,,,,,,,,,,,,,,,,,,,,,,,,,,,,,,,,,,,,,,,,P2,001,2019_Nov_12_1616,test_final,3.1.5,60.17383016724645,
,,,,5,0,5,0,3,0,3,0,,,,,,,,,,,,,,,,,,,,,,,,,,,,,,,,,,,,,,,76.25461599999107,None,,,,,,,,,,,,,,,,,,,,,,,,,,,,,,,,,,,,,,,,,,,,,,,,,,,,,,,,,,,,,,,,,,,,,,,,,,,,,,,,,,,,,,,,,,,,,,,,,,,,,,,,,,,,,,,,,,,,,P2,001,2019_Nov_12_1616,test_final,3.1.5,60.17383016724645,
,,,,6,0,6,0,0,0,0,0,,,,,,,,,,,,,,,,,,,,,,,,,,,,,,,,,,,,,,,79.98440159996971,None,slrk,"['s', 'l', 'r', 'k']","[0.6570157000096515, 0.8494005999527872, 0.9587145999539644, 1.3805468999780715, 1.5387446000240743, 1.6573292999528348, 1.8832508999621496]",77.55356659996323,None,77.55356659996323,None,1,SLRK,77.55356659996323,None,,,,,,,,,,,,,,,,,,,,,,,,,,,,,,,,,,,,,,,,,,,,,,,,,,,,,,,,,,,,,,,,,,,,,,,,,,,,,,,,,,,,,,,,,,,,,,,,,,,,,,,,,,P2,001,2019_Nov_12_1616,test_final,3.1.5,60.17383016724645,
,,,,6,0,6,0,1,0,1,0,,,,,,,,,,,,,,,,,,,,,,,,,,,,,,,,,,,,,,,81.28304549993481,80.76683179999236,,,,,,,,,,,,,,,,,,,,,,,,,,,,,,,,,,,,,,,,,,,,,,,,,,,,,,,,,,,,,,,,,,,,,,,,,,,,,,,,,,,,,,,,,,,,,,,,,,,,,,,,,,,,,,,,,,,,,P2,001,2019_Nov_12_1616,test_final,3.1.5,60.17383016724645,
,,,,6,0,6,0,2,0,2,0,,,,,,,,,,,,,,,,,,,,,,,,,,,,,,,,,,,,,,,82.58197379997,82.07182169996668,,,,,,,,,,,,,,,,,,,,,,,,,,,,,,,,,,,,,,,,,,,,,,,,,,,,,,,,,,,,,,,,,,,,,,,,,,,,,,,,,,,,,,,,,,,,,,,,,,,,,,,,,,,,,,,,,,,,,P2,001,2019_Nov_12_1616,test_final,3.1.5,60.17383016724645,
,,,,6,0,6,0,3,0,3,0,,,,,,,,,,,,,,,,,,,,,,,,,,,,,,,,,,,,,,,83.88069379993249,83.36399159999564,,,,,,,,,,,,,,,,,,,,,,,,,,,,,,,,,,,,,,,,,,,,,,,,,,,,,,,,,,,,,,,,,,,,,,,,,,,,,,,,,,,,,,,,,,,,,,,,,,,,,,,,,,,,,,,,,,,,,P2,001,2019_Nov_12_1616,test_final,3.1.5,60.17383016724645,
,,,,6,0,6,0,4,0,4,0,,,,,,,,,,,,,,,,,,,,,,,,,,,,,,,,,,,,,,,85.17931399994995,84.66304799995851,,,,,,,,,,,,,,,,,,,,,,,,,,,,,,,,,,,,,,,,,,,,,,,,,,,,,,,,,,,,,,,,,,,,,,,,,,,,,,,,,,,,,,,,,,,,,,,,,,,,,,,,,,,,,,,,,,,,,P2,001,2019_Nov_12_1616,test_final,3.1.5,60.17383016724645,
,,,,7,0,7,0,0,0,0,0,,,,,,,,,,,,,,,,,,,,,,,,,,,,,,,,,,,,,,,88.84237750002649,None,vsnkh,"['v', 's', 'n', 'k', 'h']","[0.5984388999640942, 0.7555748999584466, 1.168564899940975, 1.314626400009729, 1.4696829000022262, 1.809012099984102]",86.47824329999276,None,86.47824329999276,None,1,VSNKH,86.47824329999276,None,,,,,,,,,,,,,,,,,,,,,,,,,,,,,,,,,,,,,,,,,,,,,,,,,,,,,,,,,,,,,,,,,,,,,,,,,,,,,,,,,,,,,,,,,,,,,,,,,,,,,,,,,,P2,001,2019_Nov_12_1616,test_final,3.1.5,60.17383016724645,
,,,,7,0,7,0,1,0,1,0,,,,,,,,,,,,,,,,,,,,,,,,,,,,,,,,,,,,,,,90.14115859998856,89.6248379999306,,,,,,,,,,,,,,,,,,,,,,,,,,,,,,,,,,,,,,,,,,,,,,,,,,,,,,,,,,,,,,,,,,,,,,,,,,,,,,,,,,,,,,,,,,,,,,,,,,,,,,,,,,,,,,,,,,,,,P2,001,2019_Nov_12_1616,test_final,3.1.5,60.17383016724645,
,,,,7,0,7,0,2,0,2,0,,,,,,,,,,,,,,,,,,,,,,,,,,,,,,,,,,,,,,,91.43989109992981,90.92341419996228,,,,,,,,,,,,,,,,,,,,,,,,,,,,,,,,,,,,,,,,,,,,,,,,,,,,,,,,,,,,,,,,,,,,,,,,,,,,,,,,,,,,,,,,,,,,,,,,,,,,,,,,,,,,,,,,,,,,,P2,001,2019_Nov_12_1616,test_final,3.1.5,60.17383016724645,
,,,,7,0,7,0,3,0,3,0,,,,,,,,,,,,,,,,,,,,,,,,,,,,,,,,,,,,,,,92.73849479993805,92.22207609994803,,,,,,,,,,,,,,,,,,,,,,,,,,,,,,,,,,,,,,,,,,,,,,,,,,,,,,,,,,,,,,,,,,,,,,,,,,,,,,,,,,,,,,,,,,,,,,,,,,,,,,,,,,,,,,,,,,,,,P2,001,2019_Nov_12_1616,test_final,3.1.5,60.17383016724645,
,,,,7,0,7,0,4,0,4,0,,,,,,,,,,,,,,,,,,,,,,,,,,,,,,,,,,,,,,,94.03734019992407,93.52170599997044,,,,,,,,,,,,,,,,,,,,,,,,,,,,,,,,,,,,,,,,,,,,,,,,,,,,,,,,,,,,,,,,,,,,,,,,,,,,,,,,,,,,,,,,,,,,,,,,,,,,,,,,,,,,,,,,,,,,,P2,001,2019_Nov_12_1616,test_final,3.1.5,60.17383016724645,
,,,,8,0,8,0,0,0,0,0,,,,,,,,,,,,,,,,,,,,,,,,,,,,,,,,,,,,,,,101.28034689999186,None,tzxrn,"['t', 'z', 'x', 'r', 'n']","[1.186893800040707, 1.3577378999907523, 2.2435491000069305, 2.369793700054288, 2.80988499999512, 5.388092100038193]",95.33578710001893,None,95.33578710001893,None,1,TZXRN,95.33578710001893,None,,,,,,,,,,,,,,,,,,,,,,,,,,,,,,,,,,,,,,,,,,,,,,,,,,,,,,,,,,,,,,,,,,,,,,,,,,,,,,,,,,,,,,,,,,,,,,,,,,,,,,,,,,P2,001,2019_Nov_12_1616,test_final,3.1.5,60.17383016724645,
,,,,8,0,8,0,1,0,1,0,,,,,,,,,,,,,,,,,,,,,,,,,,,,,,,,,,,,,,,102.59561299998313,None,,,,,,,,,,,,,,,,,,,,,,,,,,,,,,,,,,,,,,,,,,,,,,,,,,,,,,,,,,,,,,,,,,,,,,,,,,,,,,,,,,,,,,,,,,,,,,,,,,,,,,,,,,,,,,,,,,,,,P2,001,2019_Nov_12_1616,test_final,3.1.5,60.17383016724645,
,,,,8,0,8,0,2,0,2,0,,,,,,,,,,,,,,,,,,,,,,,,,,,,,,,,,,,,,,,103.89402429992333,None,,,,,,,,,,,,,,,,,,,,,,,,,,,,,,,,,,,,,,,,,,,,,,,,,,,,,,,,,,,,,,,,,,,,,,,,,,,,,,,,,,,,,,,,,,,,,,,,,,,,,,,,,,,,,,,,,,,,,P2,001,2019_Nov_12_1616,test_final,3.1.5,60.17383016724645,
,,,,8,0,8,0,3,0,3,0,,,,,,,,,,,,,,,,,,,,,,,,,,,,,,,,,,,,,,,105.19311709993053,None,,,,,,,,,,,,,,,,,,,,,,,,,,,,,,,,,,,,,,,,,,,,,,,,,,,,,,,,,,,,,,,,,,,,,,,,,,,,,,,,,,,,,,,,,,,,,,,,,,,,,,,,,,,,,,,,,,,,,P2,001,2019_Nov_12_1616,test_final,3.1.5,60.17383016724645,
,,,,8,0,8,0,4,0,4,0,,,,,,,,,,,,,,,,,,,,,,,,,,,,,,,,,,,,,,,106.49163389997557,None,,,,,,,,,,,,,,,,,,,,,,,,,,,,,,,,,,,,,,,,,,,,,,,,,,,,,,,,,,,,,,,,,,,,,,,,,,,,,,,,,,,,,,,,,,,,,,,,,,,,,,,,,,,,,,,,,,,,,P2,001,2019_Nov_12_1616,test_final,3.1.5,60.17383016724645,
,,,,8,0,8,0,5,0,5,0,,,,,,,,,,,,,,,,,,,,,,,,,,,,,,,,,,,,,,,107.79054800001904,107.2742322999984,,,,,,,,,,,,,,,,,,,,,,,,,,,,,,,,,,,,,,,,,,,,,,,,,,,,,,,,,,,,,,,,,,,,,,,,,,,,,,,,,,,,,,,,,,,,,,,,,,,,,,,,,,,,,,,,,,,,,P2,001,2019_Nov_12_1616,test_final,3.1.5,60.17383016724645,
,,,,9,0,9,0,0,0,0,0,,,,,,,,,,,,,,,,,,,,,,,,,,,,,,,,,,,,,,,113.001909899991,None,vrqzkt,"['v', 'r', 'q', 'z', 'k', 't']","[1.1832811000058427, 1.3657313000876456, 1.6551181999966502, 1.940998399979435, 2.5956227000569925, 2.8480552000692114, 3.3612032000673935]",109.08929209993221,None,109.08929209993221,None,1,VRQZKT,109.08929209993221,None,,,,,,,,,,,,,,,,,,,,,,,,,,,,,,,,,,,,,,,,,,,,,,,,,,,,,,,,,,,,,,,,,,,,,,,,,,,,,,,,,,,,,,,,,,,,,,,,,,,,,,,,,,P2,001,2019_Nov_12_1616,test_final,3.1.5,60.17383016724645,
,,,,9,0,9,0,1,0,1,0,,,,,,,,,,,,,,,,,,,,,,,,,,,,,,,,,,,,,,,114.3174638999626,None,,,,,,,,,,,,,,,,,,,,,,,,,,,,,,,,,,,,,,,,,,,,,,,,,,,,,,,,,,,,,,,,,,,,,,,,,,,,,,,,,,,,,,,,,,,,,,,,,,,,,,,,,,,,,,,,,,,,,P2,001,2019_Nov_12_1616,test_final,3.1.5,60.17383016724645,
,,,,9,0,9,0,2,0,2,0,,,,,,,,,,,,,,,,,,,,,,,,,,,,,,,,,,,,,,,115.6160469999304,None,,,,,,,,,,,,,,,,,,,,,,,,,,,,,,,,,,,,,,,,,,,,,,,,,,,,,,,,,,,,,,,,,,,,,,,,,,,,,,,,,,,,,,,,,,,,,,,,,,,,,,,,,,,,,,,,,,,,,P2,001,2019_Nov_12_1616,test_final,3.1.5,60.17383016724645,
,,,,9,0,9,0,3,0,3,0,,,,,,,,,,,,,,,,,,,,,,,,,,,,,,,,,,,,,,,116.91499919991475,None,,,,,,,,,,,,,,,,,,,,,,,,,,,,,,,,,,,,,,,,,,,,,,,,,,,,,,,,,,,,,,,,,,,,,,,,,,,,,,,,,,,,,,,,,,,,,,,,,,,,,,,,,,,,,,,,,,,,,P2,001,2019_Nov_12_1616,test_final,3.1.5,60.17383016724645,
,,,,9,0,9,0,4,0,4,0,,,,,,,,,,,,,,,,,,,,,,,,,,,,,,,,,,,,,,,118.21345659997314,None,,,,,,,,,,,,,,,,,,,,,,,,,,,,,,,,,,,,,,,,,,,,,,,,,,,,,,,,,,,,,,,,,,,,,,,,,,,,,,,,,,,,,,,,,,,,,,,,,,,,,,,,,,,,,,,,,,,,,P2,001,2019_Nov_12_1616,test_final,3.1.5,60.17383016724645,
,,,,9,0,9,0,5,0,5,0,,,,,,,,,,,,,,,,,,,,,,,,,,,,,,,,,,,,,,,119.51223699992988,None,,,,,,,,,,,,,,,,,,,,,,,,,,,,,,,,,,,,,,,,,,,,,,,,,,,,,,,,,,,,,,,,,,,,,,,,,,,,,,,,,,,,,,,,,,,,,,,,,,,,,,,,,,,,,,,,,,,,,P2,001,2019_Nov_12_1616,test_final,3.1.5,60.17383016724645,
,,,,10,0,10,0,0,0,0,0,,,,,,,,,,,,,,,,,,,,,,,,,,,,,,,,,,,,,,,132.73272779991385,None,sjrnvk,"['s', 'j', 'r', 'n', 'v', 'k']","[1.7669157000491396, 2.09757800004445, 3.098521600011736, 3.8048047000775114, 4.39438940002583, 4.825325699988753, 5.079977100016549, 7.060774500016123, 7.239781600073911, 7.396899600047618, 7.557293000048958, 7.896762300049886, 8.456235300051048, 9.001852000015788, 9.362005900009535, 9.772053400054574, 10.097485700040124, 10.541114200023003, 11.372123299981467]",120.81115560000762,None,120.81115560000762,None,1,SJRNVK,120.81115560000762,None,,,,,,,,,,,,,,,,,,,,,,,,,,,,,,,,,,,,,,,,,,,,,,,,,,,,,,,,,,,,,,,,,,,,,,,,,,,,,,,,,,,,,,,,,,,,,,,,,,,,,,,,,,P2,001,2019_Nov_12_1616,test_final,3.1.5,60.17383016724645,
,,,,10,0,10,0,1,0,1,0,,,,,,,,,,,,,,,,,,,,,,,,,,,,,,,,,,,,,,,134.0313892000122,133.51556329999585,,,,,,,,,,,,,,,,,,,,,,,,,,,,,,,,,,,,,,,,,,,,,,,,,,,,,,,,,,,,,,,,,,,,,,,,,,,,,,,,,,,,,,,,,,,,,,,,,,,,,,,,,,,,,,,,,,,,,P2,001,2019_Nov_12_1616,test_final,3.1.5,60.17383016724645,
,,,,10,0,10,0,2,0,2,0,,,,,,,,,,,,,,,,,,,,,,,,,,,,,,,,,,,,,,,135.32995980000123,134.81383509992156,,,,,,,,,,,,,,,,,,,,,,,,,,,,,,,,,,,,,,,,,,,,,,,,,,,,,,,,,,,,,,,,,,,,,,,,,,,,,,,,,,,,,,,,,,,,,,,,,,,,,,,,,,,,,,,,,,,,,P2,001,2019_Nov_12_1616,test_final,3.1.5,60.17383016724645,
,,,,10,0,10,0,3,0,3,0,,,,,,,,,,,,,,,,,,,,,,,,,,,,,,,,,,,,,,,136.6289222999476,136.11252700001933,,,,,,,,,,,,,,,,,,,,,,,,,,,,,,,,,,,,,,,,,,,,,,,,,,,,,,,,,,,,,,,,,,,,,,,,,,,,,,,,,,,,,,,,,,,,,,,,,,,,,,,,,,,,,,,,,,,,,P2,001,2019_Nov_12_1616,test_final,3.1.5,60.17383016724645,
,,,,10,0,10,0,4,0,4,0,,,,,,,,,,,,,,,,,,,,,,,,,,,,,,,,,,,,,,,137.92713219998404,137.41113649995532,,,,,,,,,,,,,,,,,,,,,,,,,,,,,,,,,,,,,,,,,,,,,,,,,,,,,,,,,,,,,,,,,,,,,,,,,,,,,,,,,,,,,,,,,,,,,,,,,,,,,,,,,,,,,,,,,,,,,P2,001,2019_Nov_12_1616,test_final,3.1.5,60.17383016724645,
,,,,10,0,10,0,5,0,5,0,,,,,,,,,,,,,,,,,,,,,,,,,,,,,,,,,,,,,,,139.22632319992408,138.7099268999882,,,,,,,,,,,,,,,,,,,,,,,,,,,,,,,,,,,,,,,,,,,,,,,,,,,,,,,,,,,,,,,,,,,,,,,,,,,,,,,,,,,,,,,,,,,,,,,,,,,,,,,,,,,,,,,,,,,,,P2,001,2019_Nov_12_1616,test_final,3.1.5,60.17383016724645,
,,,,10,0,10,0,6,0,6,0,,,,,,,,,,,,,,,,,,,,,,,,,,,,,,,,,,,,,,,140.5250276000006,140.00868710002396,,,,,,,,,,,,,,,,,,,,,,,,,,,,,,,,,,,,,,,,,,,,,,,,,,,,,,,,,,,,,,,,,,,,,,,,,,,,,,,,,,,,,,,,,,,,,,,,,,,,,,,,,,,,,,,,,,,,,P2,001,2019_Nov_12_1616,test_final,3.1.5,60.17383016724645,
,,,,11,0,11,0,0,0,0,0,,,,,,,,,,,,,,,,,,,,,,,,,,,,,,,,,,,,,,,148.31747260002885,None,vnhqtlz,"['v', 'n', 'h', 'q', 't', 'l', 'z']","[1.6115619000047445, 1.9379401000915095, 2.2974227000959218, 3.8730069000739604, 4.282019900041632, 4.704608700005338, 5.114379800041206, 5.938457200070843]",141.82371799997054,None,141.82371799997054,None,1,VNHQTLZ,141.82371799997054,None,,,,,,,,,,,,,,,,,,,,,,,,,,,,,,,,,,,,,,,,,,,,,,,,,,,,,,,,,,,,,,,,,,,,,,,,,,,,,,,,,,,,,,,,,,,,,,,,,,,,,,,,,,P2,001,2019_Nov_12_1616,test_final,3.1.5,60.17383016724645,
,,,,11,0,11,0,1,0,1,0,,,,,,,,,,,,,,,,,,,,,,,,,,,,,,,,,,,,,,,149.63273730000947,None,,,,,,,,,,,,,,,,,,,,,,,,,,,,,,,,,,,,,,,,,,,,,,,,,,,,,,,,,,,,,,,,,,,,,,,,,,,,,,,,,,,,,,,,,,,,,,,,,,,,,,,,,,,,,,,,,,,,,P2,001,2019_Nov_12_1616,test_final,3.1.5,60.17383016724645,
,,,,11,0,11,0,2,0,2,0,,,,,,,,,,,,,,,,,,,,,,,,,,,,,,,,,,,,,,,150.93139959999826,None,,,,,,,,,,,,,,,,,,,,,,,,,,,,,,,,,,,,,,,,,,,,,,,,,,,,,,,,,,,,,,,,,,,,,,,,,,,,,,,,,,,,,,,,,,,,,,,,,,,,,,,,,,,,,,,,,,,,,P2,001,2019_Nov_12_1616,test_final,3.1.5,60.17383016724645,
,,,,11,0,11,0,3,0,3,0,,,,,,,,,,,,,,,,,,,,,,,,,,,,,,,,,,,,,,,152.23007920000236,None,,,,,,,,,,,,,,,,,,,,,,,,,,,,,,,,,,,,,,,,,,,,,,,,,,,,,,,,,,,,,,,,,,,,,,,,,,,,,,,,,,,,,,,,,,,,,,,,,,,,,,,,,,,,,,,,,,,,,P2,001,2019_Nov_12_1616,test_final,3.1.5,60.17383016724645,
,,,,11,0,11,0,4,0,4,0,,,,,,,,,,,,,,,,,,,,,,,,,,,,,,,,,,,,,,,153.52903859992512,None,,,,,,,,,,,,,,,,,,,,,,,,,,,,,,,,,,,,,,,,,,,,,,,,,,,,,,,,,,,,,,,,,,,,,,,,,,,,,,,,,,,,,,,,,,,,,,,,,,,,,,,,,,,,,,,,,,,,,P2,001,2019_Nov_12_1616,test_final,3.1.5,60.17383016724645,
,,,,11,0,11,0,5,0,5,0,,,,,,,,,,,,,,,,,,,,,,,,,,,,,,,,,,,,,,,154.82754410000052,None,,,,,,,,,,,,,,,,,,,,,,,,,,,,,,,,,,,,,,,,,,,,,,,,,,,,,,,,,,,,,,,,,,,,,,,,,,,,,,,,,,,,,,,,,,,,,,,,,,,,,,,,,,,,,,,,,,,,,P2,001,2019_Nov_12_1616,test_final,3.1.5,60.17383016724645,
,,,,11,0,11,0,6,0,6,0,,,,,,,,,,,,,,,,,,,,,,,,,,,,,,,,,,,,,,,156.12636370002292,None,,,,,,,,,,,,,,,,,,,,,,,,,,,,,,,,,,,,,,,,,,,,,,,,,,,,,,,,,,,,,,,,,,,,,,,,,,,,,,,,,,,,,,,,,,,,,,,,,,,,,,,,,,,,,,,,,,,,,P2,001,2019_Nov_12_1616,test_final,3.1.5,60.17383016724645,
,,,,12,0,12,0,0,0,0,0,,,,,,,,,,,,,,,,,,,,,,,,,,,,,,,,,,,,,,,163.50224900001194,None,khjsvrt,"['k', 'h', 'j', 's', 'v', 'r', 't']","[1.5208920000586659, 1.809386800043285, 2.153410700033419, 2.697115999995731, 4.51370410004165, 4.837086400017142, 5.0032152000349015, 5.520704900030978]",157.42508969991468,None,157.42508969991468,None,1,KHJSVRT,157.42508969991468,None,,,,,,,,,,,,,,,,,,,,,,,,,,,,,,,,,,,,,,,,,,,,,,,,,,,,,,,,,,,,,,,,,,,,,,,,,,,,,,,,,,,,,,,,,,,,,,,,,,,,,,,,,,P2,001,2019_Nov_12_1616,test_final,3.1.5,60.17383016724645,
,,,,12,0,12,0,1,0,1,0,,,,,,,,,,,,,,,,,,,,,,,,,,,,,,,,,,,,,,,164.80113889998756,164.28557369997725,,,,,,,,,,,,,,,,,,,,,,,,,,,,,,,,,,,,,,,,,,,,,,,,,,,,,,,,,,,,,,,,,,,,,,,,,,,,,,,,,,,,,,,,,,,,,,,,,,,,,,,,,,,,,,,,,,,,,P2,001,2019_Nov_12_1616,test_final,3.1.5,60.17383016724645,
,,,,12,0,12,0,2,0,2,0,,,,,,,,,,,,,,,,,,,,,,,,,,,,,,,,,,,,,,,166.0999121000059,165.58349340001587,,,,,,,,,,,,,,,,,,,,,,,,,,,,,,,,,,,,,,,,,,,,,,,,,,,,,,,,,,,,,,,,,,,,,,,,,,,,,,,,,,,,,,,,,,,,,,,,,,,,,,,,,,,,,,,,,,,,,P2,001,2019_Nov_12_1616,test_final,3.1.5,60.17383016724645,
,,,,12,0,12,0,3,0,3,0,,,,,,,,,,,,,,,,,,,,,,,,,,,,,,,,,,,,,,,167.39859859994613,166.88221189996693,,,,,,,,,,,,,,,,,,,,,,,,,,,,,,,,,,,,,,,,,,,,,,,,,,,,,,,,,,,,,,,,,,,,,,,,,,,,,,,,,,,,,,,,,,,,,,,,,,,,,,,,,,,,,,,,,,,,,P2,001,2019_Nov_12_1616,test_final,3.1.5,60.17383016724645,
,,,,12,0,12,0,4,0,4,0,,,,,,,,,,,,,,,,,,,,,,,,,,,,,,,,,,,,,,,168.69690570002422,168.18233209999744,,,,,,,,,,,,,,,,,,,,,,,,,,,,,,,,,,,,,,,,,,,,,,,,,,,,,,,,,,,,,,,,,,,,,,,,,,,,,,,,,,,,,,,,,,,,,,,,,,,,,,,,,,,,,,,,,,,,,P2,001,2019_Nov_12_1616,test_final,3.1.5,60.17383016724645,
,,,,12,0,12,0,5,0,5,0,,,,,,,,,,,,,,,,,,,,,,,,,,,,,,,,,,,,,,,169.99626019992866,169.4798046000069,,,,,,,,,,,,,,,,,,,,,,,,,,,,,,,,,,,,,,,,,,,,,,,,,,,,,,,,,,,,,,,,,,,,,,,,,,,,,,,,,,,,,,,,,,,,,,,,,,,,,,,,,,,,,,,,,,,,,P2,001,2019_Nov_12_1616,test_final,3.1.5,60.17383016724645,
,,,,12,0,12,0,6,0,6,0,,,,,,,,,,,,,,,,,,,,,,,,,,,,,,,,,,,,,,,171.29474949999712,170.77848540002014,,,,,,,,,,,,,,,,,,,,,,,,,,,,,,,,,,,,,,,,,,,,,,,,,,,,,,,,,,,,,,,,,,,,,,,,,,,,,,,,,,,,,,,,,,,,,,,,,,,,,,,,,,,,,,,,,,,,,P2,001,2019_Nov_12_1616,test_final,3.1.5,60.17383016724645,
,,,,12,0,12,0,7,0,7,0,,,,,,,,,,,,,,,,,,,,,,,,,,,,,,,,,,,,,,,172.5936855999753,172.07739759993274,,,,,,,,,,,,,,,,,,,,,,,,,,,,,,,,,,,,,,,,,,,,,,,,,,,,,,,,,,,,,,,,,,,,,,,,,,,,,,,,,,,,,,,,,,,,,,,,,,,,,,,,,,,,,,,,,,,,,P2,001,2019_Nov_12_1616,test_final,3.1.5,60.17383016724645,
,,,,13,0,13,0,0,0,0,0,,,,,,,,,,,,,,,,,,,,,,,,,,,,,,,,,,,,,,,188.27823599998374,None,trzqvshz,"['t', 'r', 'z', 'q', 'v', 's', 'h', 'z']","[1.5070077000418678, 1.7127936000470072, 2.1272584999678656, 2.958868799963966, 3.426890700007789, 3.824100699974224, 10.408409100025892, 10.747737400000915, 11.562297999975272, 11.916607600054704, 12.468488799990155, 12.822144499979913, 13.831532799988054]",173.89256850001402,None,173.89256850001402,None,0,TRZQVSXH,173.89256850001402,None,,,,,,,,,,,,,,,,,,,,,,,,,,,,,,,,,,,,,,,,,,,,,,,,,,,,,,,,,,,,,,,,,,,,,,,,,,,,,,,,,,,,,,,,,,,,,,,,,,,,,,,,,,P2,001,2019_Nov_12_1616,test_final,3.1.5,60.17383016724645,
,,,,13,0,13,0,1,0,1,0,,,,,,,,,,,,,,,,,,,,,,,,,,,,,,,,,,,,,,,189.5937526000198,None,,,,,,,,,,,,,,,,,,,,,,,,,,,,,,,,,,,,,,,,,,,,,,,,,,,,,,,,,,,,,,,,,,,,,,,,,,,,,,,,,,,,,,,,,,,,,,,,,,,,,,,,,,,,,,,,,,,,,P2,001,2019_Nov_12_1616,test_final,3.1.5,60.17383016724645,
,,,,13,0,13,0,2,0,2,0,,,,,,,,,,,,,,,,,,,,,,,,,,,,,,,,,,,,,,,190.89235520001967,None,,,,,,,,,,,,,,,,,,,,,,,,,,,,,,,,,,,,,,,,,,,,,,,,,,,,,,,,,,,,,,,,,,,,,,,,,,,,,,,,,,,,,,,,,,,,,,,,,,,,,,,,,,,,,,,,,,,,,P2,001,2019_Nov_12_1616,test_final,3.1.5,60.17383016724645,
,,,,13,0,13,0,3,0,3,0,,,,,,,,,,,,,,,,,,,,,,,,,,,,,,,,,,,,,,,192.1912535999436,None,,,,,,,,,,,,,,,,,,,,,,,,,,,,,,,,,,,,,,,,,,,,,,,,,,,,,,,,,,,,,,,,,,,,,,,,,,,,,,,,,,,,,,,,,,,,,,,,,,,,,,,,,,,,,,,,,,,,,P2,001,2019_Nov_12_1616,test_final,3.1.5,60.17383016724645,
,,,,13,0,13,0,4,0,4,0,,,,,,,,,,,,,,,,,,,,,,,,,,,,,,,,,,,,,,,193.48978890001308,None,,,,,,,,,,,,,,,,,,,,,,,,,,,,,,,,,,,,,,,,,,,,,,,,,,,,,,,,,,,,,,,,,,,,,,,,,,,,,,,,,,,,,,,,,,,,,,,,,,,,,,,,,,,,,,,,,,,,,P2,001,2019_Nov_12_1616,test_final,3.1.5,60.17383016724645,
,,,,13,0,13,0,5,0,5,0,,,,,,,,,,,,,,,,,,,,,,,,,,,,,,,,,,,,,,,194.78853659995366,None,,,,,,,,,,,,,,,,,,,,,,,,,,,,,,,,,,,,,,,,,,,,,,,,,,,,,,,,,,,,,,,,,,,,,,,,,,,,,,,,,,,,,,,,,,,,,,,,,,,,,,,,,,,,,,,,,,,,,P2,001,2019_Nov_12_1616,test_final,3.1.5,60.17383016724645,
,,,,13,0,13,0,6,0,6,0,,,,,,,,,,,,,,,,,,,,,,,,,,,,,,,,,,,,,,,196.08710579993203,None,,,,,,,,,,,,,,,,,,,,,,,,,,,,,,,,,,,,,,,,,,,,,,,,,,,,,,,,,,,,,,,,,,,,,,,,,,,,,,,,,,,,,,,,,,,,,,,,,,,,,,,,,,,,,,,,,,,,,P2,001,2019_Nov_12_1616,test_final,3.1.5,60.17383016724645,
,,,,13,0,13,0,7,0,7,0,,,,,,,,,,,,,,,,,,,,,,,,,,,,,,,,,,,,,,,197.3858872000128,196.86951899994165,,,,,,,,,,,,,,,,,,,,,,,,,,,,,,,,,,,,,,,,,,,,,,,,,,,,,,,,,,,,,,,,,,,,,,,,,,,,,,,,,,,,,,,,,,,,,,,,,,,,,,,,,,,,,,,,,,,,,P2,001,2019_Nov_12_1616,test_final,3.1.5,60.17383016724645,
,,,,14,0,14,0,0,0,0,0,,,,,,,,,,,,,,,,,,,,,,,,,,,,,,,,,,,,,,,212.17147830000613,None,nlvkshzx,"['n', 'l', 'v', 'k', 's', 'h', 'z', 'x']","[5.490787899936549, 5.861792799900286, 6.52298869995866, 7.241545400000177, 7.776097599999048, 8.367399299982935, 9.342040499905124, 12.2531214999035, 12.928682999918237]",198.68458609993104,None,198.68458609993104,None,1,NLVKSHZX,198.68458609993104,None,,,,,,,,,,,,,,,,,,,,,,,,,,,,,,,,,,,,,,,,,,,,,,,,,,,,,,,,,,,,,,,,,,,,,,,,,,,,,,,,,,,,,,,,,,,,,,,,,,,,,,,,,,P2,001,2019_Nov_12_1616,test_final,3.1.5,60.17383016724645,
,,,,14,0,14,0,1,0,1,0,,,,,,,,,,,,,,,,,,,,,,,,,,,,,,,,,,,,,,,213.48675689997617,None,,,,,,,,,,,,,,,,,,,,,,,,,,,,,,,,,,,,,,,,,,,,,,,,,,,,,,,,,,,,,,,,,,,,,,,,,,,,,,,,,,,,,,,,,,,,,,,,,,,,,,,,,,,,,,,,,,,,,P2,001,2019_Nov_12_1616,test_final,3.1.5,60.17383016724645,
,,,,14,0,14,0,2,0,2,0,,,,,,,,,,,,,,,,,,,,,,,,,,,,,,,,,,,,,,,214.7854845999973,None,,,,,,,,,,,,,,,,,,,,,,,,,,,,,,,,,,,,,,,,,,,,,,,,,,,,,,,,,,,,,,,,,,,,,,,,,,,,,,,,,,,,,,,,,,,,,,,,,,,,,,,,,,,,,,,,,,,,,P2,001,2019_Nov_12_1616,test_final,3.1.5,60.17383016724645,
,,,,14,0,14,0,3,0,3,0,,,,,,,,,,,,,,,,,,,,,,,,,,,,,,,,,,,,,,,216.08394299994688,None,,,,,,,,,,,,,,,,,,,,,,,,,,,,,,,,,,,,,,,,,,,,,,,,,,,,,,,,,,,,,,,,,,,,,,,,,,,,,,,,,,,,,,,,,,,,,,,,,,,,,,,,,,,,,,,,,,,,,P2,001,2019_Nov_12_1616,test_final,3.1.5,60.17383016724645,
,,,,14,0,14,0,4,0,4,0,,,,,,,,,,,,,,,,,,,,,,,,,,,,,,,,,,,,,,,217.38261209998745,None,,,,,,,,,,,,,,,,,,,,,,,,,,,,,,,,,,,,,,,,,,,,,,,,,,,,,,,,,,,,,,,,,,,,,,,,,,,,,,,,,,,,,,,,,,,,,,,,,,,,,,,,,,,,,,,,,,,,,P2,001,2019_Nov_12_1616,test_final,3.1.5,60.17383016724645,
,,,,14,0,14,0,5,0,5,0,,,,,,,,,,,,,,,,,,,,,,,,,,,,,,,,,,,,,,,218.68179519998375,None,,,,,,,,,,,,,,,,,,,,,,,,,,,,,,,,,,,,,,,,,,,,,,,,,,,,,,,,,,,,,,,,,,,,,,,,,,,,,,,,,,,,,,,,,,,,,,,,,,,,,,,,,,,,,,,,,,,,,P2,001,2019_Nov_12_1616,test_final,3.1.5,60.17383016724645,
,,,,14,0,14,0,6,0,6,0,,,,,,,,,,,,,,,,,,,,,,,,,,,,,,,,,,,,,,,219.98054669995327,None,,,,,,,,,,,,,,,,,,,,,,,,,,,,,,,,,,,,,,,,,,,,,,,,,,,,,,,,,,,,,,,,,,,,,,,,,,,,,,,,,,,,,,,,,,,,,,,,,,,,,,,,,,,,,,,,,,,,,P2,001,2019_Nov_12_1616,test_final,3.1.5,60.17383016724645,
,,,,14,0,14,0,7,0,7,0,,,,,,,,,,,,,,,,,,,,,,,,,,,,,,,,,,,,,,,221.2793472999474,220.76867030002177,,,,,,,,,,,,,,,,,,,,,,,,,,,,,,,,,,,,,,,,,,,,,,,,,,,,,,,,,,,,,,,,,,,,,,,,,,,,,,,,,,,,,,,,,,,,,,,,,,,,,,,,,,,,,,,,,,,,,P2,001,2019_Nov_12_1616,test_final,3.1.5,60.17383016724645,
,,,,15,0,15,0,0,0,0,0,,,,,,,,,,,,,,,,,,,,,,,,,,,,,,,,,,,,,,,233.30064399994444,None,nlxqjzlt,"['n', 'l', 'x', 'q', 'j', 'z', 'l', 't']","[1.8145873999455944, 1.9569235999369994, 2.38990950002335, 4.4903822999913245, 4.925682800007053, 5.4554869999410585, 8.16675909992773, 8.331243900000118, 10.17147079994902]",222.57807019993197,None,222.57807019993197,None,0,NLXQJZRT,222.57807019993197,None,,,,,,,,,,,,,,,,,,,,,,,,,,,,,,,,,,,,,,,,,,,,,,,,,,,,,,,,,,,,,,,,,,,,,,,,,,,,,,,,,,,,,,,,,,,,,,,,,,,,,,,,,,P2,001,2019_Nov_12_1616,test_final,3.1.5,60.17383016724645,
,,,,15,0,15,0,1,0,1,0,,,,,,,,,,,,,,,,,,,,,,,,,,,,,,,,,,,,,,,234.6159080999205,None,,,,,,,,,,,,,,,,,,,,,,,,,,,,,,,,,,,,,,,,,,,,,,,,,,,,,,,,,,,,,,,,,,,,,,,,,,,,,,,,,,,,,,,,,,,,,,,,,,,,,,,,,,,,,,,,,,,,,P2,001,2019_Nov_12_1616,test_final,3.1.5,60.17383016724645,
,,,,15,0,15,0,2,0,2,0,,,,,,,,,,,,,,,,,,,,,,,,,,,,,,,,,,,,,,,235.9148613999132,None,,,,,,,,,,,,,,,,,,,,,,,,,,,,,,,,,,,,,,,,,,,,,,,,,,,,,,,,,,,,,,,,,,,,,,,,,,,,,,,,,,,,,,,,,,,,,,,,,,,,,,,,,,,,,,,,,,,,,P2,001,2019_Nov_12_1616,test_final,3.1.5,60.17383016724645,
,,,,15,0,15,0,3,0,3,0,,,,,,,,,,,,,,,,,,,,,,,,,,,,,,,,,,,,,,,237.21370530000422,None,,,,,,,,,,,,,,,,,,,,,,,,,,,,,,,,,,,,,,,,,,,,,,,,,,,,,,,,,,,,,,,,,,,,,,,,,,,,,,,,,,,,,,,,,,,,,,,,,,,,,,,,,,,,,,,,,,,,,P2,001,2019_Nov_12_1616,test_final,3.1.5,60.17383016724645,
,,,,15,0,15,0,4,0,4,0,,,,,,,,,,,,,,,,,,,,,,,,,,,,,,,,,,,,,,,238.51227169996127,None,,,,,,,,,,,,,,,,,,,,,,,,,,,,,,,,,,,,,,,,,,,,,,,,,,,,,,,,,,,,,,,,,,,,,,,,,,,,,,,,,,,,,,,,,,,,,,,,,,,,,,,,,,,,,,,,,,,,,P2,001,2019_Nov_12_1616,test_final,3.1.5,60.17383016724645,
,,,,15,0,15,0,5,0,5,0,,,,,,,,,,,,,,,,,,,,,,,,,,,,,,,,,,,,,,,239.81126619991846,None,,,,,,,,,,,,,,,,,,,,,,,,,,,,,,,,,,,,,,,,,,,,,,,,,,,,,,,,,,,,,,,,,,,,,,,,,,,,,,,,,,,,,,,,,,,,,,,,,,,,,,,,,,,,,,,,,,,,,P2,001,2019_Nov_12_1616,test_final,3.1.5,60.17383016724645,
,,,,15,0,15,0,6,0,6,0,,,,,,,,,,,,,,,,,,,,,,,,,,,,,,,,,,,,,,,241.10953579994384,None,,,,,,,,,,,,,,,,,,,,,,,,,,,,,,,,,,,,,,,,,,,,,,,,,,,,,,,,,,,,,,,,,,,,,,,,,,,,,,,,,,,,,,,,,,,,,,,,,,,,,,,,,,,,,,,,,,,,,P2,001,2019_Nov_12_1616,test_final,3.1.5,60.17383016724645,
,,,,15,0,15,0,7,0,7,0,,,,,,,,,,,,,,,,,,,,,,,,,,,,,,,,,,,,,,,242.40839719993528,241.89207609998994,,,,,,,,,,,,,,,,,,,,,,,,,,,,,,,,,,,,,,,,,,,,,,,,,,,,,,,,,,,,,,,,,,,,,,,,,,,,,,,,,,,,,,,,,,,,,,,,,,,,,,,,,,,,,,,,,,,,,P2,001,2019_Nov_12_1616,test_final,3.1.5,60.17383016724645,
,,,,16,0,16,0,0,0,0,0,,,,,,,,,,,,,,,,,,,,,,,,,,,,,,,,,,,,,,,250.30059579992667,None,kzhvxstn,"['k', 'z', 'h', 'v', 'x', 's', 't', 'n']","[1.9553190999431536, 2.431204800028354, 2.964886299916543, 3.519879899919033, 3.8893201999599114, 4.23639059998095, 4.544415600015782, 4.8648762999800965, 6.036241199937649]",243.7072353999829,None,243.7072353999829,None,1,KZHVXSTN,243.7072353999829,None,,,,,,,,,,,,,,,,,,,,,,,,,,,,,,,,,,,,,,,,,,,,,,,,,,,,,,,,,,,,,,,,,,,,,,,,,,,,,,,,,,,,,,,,,,,,,,,,,,,,,,,,,,P2,001,2019_Nov_12_1616,test_final,3.1.5,60.17383016724645,
,,,,16,0,16,0,1,0,1,0,,,,,,,,,,,,,,,,,,,,,,,,,,,,,,,,,,,,,,,251.61615239991806,None,,,,,,,,,,,,,,,,,,,,,,,,,,,,,,,,,,,,,,,,,,,,,,,,,,,,,,,,,,,,,,,,,,,,,,,,,,,,,,,,,,,,,,,,,,,,,,,,,,,,,,,,,,,,,,,,,,,,,P2,001,2019_Nov_12_1616,test_final,3.1.5,60.17383016724645,
,,,,16,0,16,0,2,0,2,0,,,,,,,,,,,,,,,,,,,,,,,,,,,,,,,,,,,,,,,252.91424920002464,None,,,,,,,,,,,,,,,,,,,,,,,,,,,,,,,,,,,,,,,,,,,,,,,,,,,,,,,,,,,,,,,,,,,,,,,,,,,,,,,,,,,,,,,,,,,,,,,,,,,,,,,,,,,,,,,,,,,,,P2,001,2019_Nov_12_1616,test_final,3.1.5,60.17383016724645,
,,,,16,0,16,0,3,0,3,0,,,,,,,,,,,,,,,,,,,,,,,,,,,,,,,,,,,,,,,254.21313649998046,None,,,,,,,,,,,,,,,,,,,,,,,,,,,,,,,,,,,,,,,,,,,,,,,,,,,,,,,,,,,,,,,,,,,,,,,,,,,,,,,,,,,,,,,,,,,,,,,,,,,,,,,,,,,,,,,,,,,,,P2,001,2019_Nov_12_1616,test_final,3.1.5,60.17383016724645,
,,,,16,0,16,0,4,0,4,0,,,,,,,,,,,,,,,,,,,,,,,,,,,,,,,,,,,,,,,255.51228399993852,None,,,,,,,,,,,,,,,,,,,,,,,,,,,,,,,,,,,,,,,,,,,,,,,,,,,,,,,,,,,,,,,,,,,,,,,,,,,,,,,,,,,,,,,,,,,,,,,,,,,,,,,,,,,,,,,,,,,,,P2,001,2019_Nov_12_1616,test_final,3.1.5,60.17383016724645,
,,,,16,0,16,0,5,0,5,0,,,,,,,,,,,,,,,,,,,,,,,,,,,,,,,,,,,,,,,256.8107820999576,None,,,,,,,,,,,,,,,,,,,,,,,,,,,,,,,,,,,,,,,,,,,,,,,,,,,,,,,,,,,,,,,,,,,,,,,,,,,,,,,,,,,,,,,,,,,,,,,,,,,,,,,,,,,,,,,,,,,,,P2,001,2019_Nov_12_1616,test_final,3.1.5,60.17383016724645,
,,,,16,0,16,0,6,0,6,0,,,,,,,,,,,,,,,,,,,,,,,,,,,,,,,,,,,,,,,258.10958499996923,257.5936445000116,,,,,,,,,,,,,,,,,,,,,,,,,,,,,,,,,,,,,,,,,,,,,,,,,,,,,,,,,,,,,,,,,,,,,,,,,,,,,,,,,,,,,,,,,,,,,,,,,,,,,,,,,,,,,,,,,,,,,P2,001,2019_Nov_12_1616,test_final,3.1.5,60.17383016724645,
,,,,16,0,16,0,7,0,7,0,,,,,,,,,,,,,,,,,,,,,,,,,,,,,,,,,,,,,,,259.4083389999578,258.89214669994544,,,,,,,,,,,,,,,,,,,,,,,,,,,,,,,,,,,,,,,,,,,,,,,,,,,,,,,,,,,,,,,,,,,,,,,,,,,,,,,,,,,,,,,,,,,,,,,,,,,,,,,,,,,,,,,,,,,,,P2,001,2019_Nov_12_1616,test_final,3.1.5,60.17383016724645,
,,,,16,0,16,0,8,0,8,0,,,,,,,,,,,,,,,,,,,,,,,,,,,,,,,,,,,,,,,260.7070974999806,260.19080969993956,,,,,,,,,,,,,,,,,,,,,,,,,,,,,,,,,,,,,,,,,,,,,,,,,,,,,,,,,,,,,,,,,,,,,,,,,,,,,,,,,,,,,,,,,,,,,,,,,,,,,,,,,,,,,,,,,,,,,P2,001,2019_Nov_12_1616,test_final,3.1.5,60.17383016724645,
,,,,17,0,17,0,0,0,0,0,,,,,,,,,,,,,,,,,,,,,,,,,,,,,,,,,,,,,,,271.5799544999609,None,rnsjztxqk,"['r', 'n', 's', 'j', 'z', 't', 'x', 'q', 'k']","[2.449913699994795, 2.8347331000259146, 3.347257100045681, 3.937215600046329, 4.542236600071192, 4.966660500038415, 5.4744420000351965, 6.0044689000351354, 6.58154879999347, 8.993553400039673]",262.0060305999359,None,262.0060305999359,None,1,RNSJZTXQK,262.0060305999359,None,,,,,,,,,,,,,,,,,,,,,,,,,,,,,,,,,,,,,,,,,,,,,,,,,,,,,,,,,,,,,,,,,,,,,,,,,,,,,,,,,,,,,,,,,,,,,,,,,,,,,,,,,,P2,001,2019_Nov_12_1616,test_final,3.1.5,60.17383016724645,
,,,,17,0,17,0,1,0,1,0,,,,,,,,,,,,,,,,,,,,,,,,,,,,,,,,,,,,,,,272.87865530001,272.3620221000165,,,,,,,,,,,,,,,,,,,,,,,,,,,,,,,,,,,,,,,,,,,,,,,,,,,,,,,,,,,,,,,,,,,,,,,,,,,,,,,,,,,,,,,,,,,,,,,,,,,,,,,,,,,,,,,,,,,,,P2,001,2019_Nov_12_1616,test_final,3.1.5,60.17383016724645,
,,,,17,0,17,0,2,0,2,0,,,,,,,,,,,,,,,,,,,,,,,,,,,,,,,,,,,,,,,274.17746309994254,273.66099949995987,,,,,,,,,,,,,,,,,,,,,,,,,,,,,,,,,,,,,,,,,,,,,,,,,,,,,,,,,,,,,,,,,,,,,,,,,,,,,,,,,,,,,,,,,,,,,,,,,,,,,,,,,,,,,,,,,,,,,P2,001,2019_Nov_12_1616,test_final,3.1.5,60.17383016724645,
,,,,17,0,17,0,3,0,3,0,,,,,,,,,,,,,,,,,,,,,,,,,,,,,,,,,,,,,,,275.47592609992716,274.959652599995,,,,,,,,,,,,,,,,,,,,,,,,,,,,,,,,,,,,,,,,,,,,,,,,,,,,,,,,,,,,,,,,,,,,,,,,,,,,,,,,,,,,,,,,,,,,,,,,,,,,,,,,,,,,,,,,,,,,,P2,001,2019_Nov_12_1616,test_final,3.1.5,60.17383016724645,
,,,,17,0,17,0,4,0,4,0,,,,,,,,,,,,,,,,,,,,,,,,,,,,,,,,,,,,,,,276.77484199998435,276.25817199994344,,,,,,,,,,,,,,,,,,,,,,,,,,,,,,,,,,,,,,,,,,,,,,,,,,,,,,,,,,,,,,,,,,,,,,,,,,,,,,,,,,,,,,,,,,,,,,,,,,,,,,,,,,,,,,,,,,,,,P2,001,2019_Nov_12_1616,test_final,3.1.5,60.17383016724645,
,,,,17,0,17,0,5,0,5,0,,,,,,,,,,,,,,,,,,,,,,,,,,,,,,,,,,,,,,,278.0735088000074,277.55683919996955,,,,,,,,,,,,,,,,,,,,,,,,,,,,,,,,,,,,,,,,,,,,,,,,,,,,,,,,,,,,,,,,,,,,,,,,,,,,,,,,,,,,,,,,,,,,,,,,,,,,,,,,,,,,,,,,,,,,,P2,001,2019_Nov_12_1616,test_final,3.1.5,60.17383016724645,
,,,,17,0,17,0,6,0,6,0,,,,,,,,,,,,,,,,,,,,,,,,,,,,,,,,,,,,,,,279.3719119000016,278.85572889994364,,,,,,,,,,,,,,,,,,,,,,,,,,,,,,,,,,,,,,,,,,,,,,,,,,,,,,,,,,,,,,,,,,,,,,,,,,,,,,,,,,,,,,,,,,,,,,,,,,,,,,,,,,,,,,,,,,,,,P2,001,2019_Nov_12_1616,test_final,3.1.5,60.17383016724645,
,,,,17,0,17,0,7,0,7,0,,,,,,,,,,,,,,,,,,,,,,,,,,,,,,,,,,,,,,,280.67102729994804,280.15435470000375,,,,,,,,,,,,,,,,,,,,,,,,,,,,,,,,,,,,,,,,,,,,,,,,,,,,,,,,,,,,,,,,,,,,,,,,,,,,,,,,,,,,,,,,,,,,,,,,,,,,,,,,,,,,,,,,,,,,,P2,001,2019_Nov_12_1616,test_final,3.1.5,60.17383016724645,
,,,,17,0,17,0,8,0,8,0,,,,,,,,,,,,,,,,,,,,,,,,,,,,,,,,,,,,,,,281.96973329992034,281.45381899992935,,,,,,,,,,,,,,,,,,,,,,,,,,,,,,,,,,,,,,,,,,,,,,,,,,,,,,,,,,,,,,,,,,,,,,,,,,,,,,,,,,,,,,,,,,,,,,,,,,,,,,,,,,,,,,,,,,,,,P2,001,2019_Nov_12_1616,test_final,3.1.5,60.17383016724645,
,,,,18,0,18,0,0,0,0,0,,,,,,,,,,,,,,,,,,,,,,,,,,,,,,,,,,,,,,,296.4719698999543,None,qrnhxvszt,"['q', 'r', 'n', 'h', 'x', 'v', 's', 'z', 't']","[2.3073797000106424, 3.1895518000237644, 3.7400811000261456, 4.979393400019035, 5.633858799934387, 6.312508799950592, 7.649108799989335, 9.204785499954596, 9.338141500018537, 12.634293299983256]",283.2681446999777,None,283.2681446999777,None,1,QRNHXVSZT,283.2681446999777,None,,,,,,,,,,,,,,,,,,,,,,,,,,,,,,,,,,,,,,,,,,,,,,,,,,,,,,,,,,,,,,,,,,,,,,,,,,,,,,,,,,,,,,,,,,,,,,,,,,,,,,,,,,P2,001,2019_Nov_12_1616,test_final,3.1.5,60.17383016724645,
,,,,18,0,18,0,1,0,1,0,,,,,,,,,,,,,,,,,,,,,,,,,,,,,,,,,,,,,,,297.7706822999753,297.25439979997464,,,,,,,,,,,,,,,,,,,,,,,,,,,,,,,,,,,,,,,,,,,,,,,,,,,,,,,,,,,,,,,,,,,,,,,,,,,,,,,,,,,,,,,,,,,,,,,,,,,,,,,,,,,,,,,,,,,,,P2,001,2019_Nov_12_1616,test_final,3.1.5,60.17383016724645,
,,,,18,0,18,0,2,0,2,0,,,,,,,,,,,,,,,,,,,,,,,,,,,,,,,,,,,,,,,299.0696406000061,298.55341289995704,,,,,,,,,,,,,,,,,,,,,,,,,,,,,,,,,,,,,,,,,,,,,,,,,,,,,,,,,,,,,,,,,,,,,,,,,,,,,,,,,,,,,,,,,,,,,,,,,,,,,,,,,,,,,,,,,,,,,P2,001,2019_Nov_12_1616,test_final,3.1.5,60.17383016724645,
,,,,18,0,18,0,3,0,3,0,,,,,,,,,,,,,,,,,,,,,,,,,,,,,,,,,,,,,,,300.36850679991767,299.851881199982,,,,,,,,,,,,,,,,,,,,,,,,,,,,,,,,,,,,,,,,,,,,,,,,,,,,,,,,,,,,,,,,,,,,,,,,,,,,,,,,,,,,,,,,,,,,,,,,,,,,,,,,,,,,,,,,,,,,,P2,001,2019_Nov_12_1616,test_final,3.1.5,60.17383016724645,
,,,,18,0,18,0,4,0,4,0,,,,,,,,,,,,,,,,,,,,,,,,,,,,,,,,,,,,,,,301.6664528999245,301.15055579994805,,,,,,,,,,,,,,,,,,,,,,,,,,,,,,,,,,,,,,,,,,,,,,,,,,,,,,,,,,,,,,,,,,,,,,,,,,,,,,,,,,,,,,,,,,,,,,,,,,,,,,,,,,,,,,,,,,,,,P2,001,2019_Nov_12_1616,test_final,3.1.5,60.17383016724645,
,,,,18,0,18,0,5,0,5,0,,,,,,,,,,,,,,,,,,,,,,,,,,,,,,,,,,,,,,,302.96575149998534,302.44964939996134,,,,,,,,,,,,,,,,,,,,,,,,,,,,,,,,,,,,,,,,,,,,,,,,,,,,,,,,,,,,,,,,,,,,,,,,,,,,,,,,,,,,,,,,,,,,,,,,,,,,,,,,,,,,,,,,,,,,,P2,001,2019_Nov_12_1616,test_final,3.1.5,60.17383016724645,
,,,,18,0,18,0,6,0,6,0,,,,,,,,,,,,,,,,,,,,,,,,,,,,,,,,,,,,,,,304.26452839991543,303.7481372000184,,,,,,,,,,,,,,,,,,,,,,,,,,,,,,,,,,,,,,,,,,,,,,,,,,,,,,,,,,,,,,,,,,,,,,,,,,,,,,,,,,,,,,,,,,,,,,,,,,,,,,,,,,,,,,,,,,,,,P2,001,2019_Nov_12_1616,test_final,3.1.5,60.17383016724645,
,,,,18,0,18,0,7,0,7,0,,,,,,,,,,,,,,,,,,,,,,,,,,,,,,,,,,,,,,,305.5631107999943,305.0467192999786,,,,,,,,,,,,,,,,,,,,,,,,,,,,,,,,,,,,,,,,,,,,,,,,,,,,,,,,,,,,,,,,,,,,,,,,,,,,,,,,,,,,,,,,,,,,,,,,,,,,,,,,,,,,,,,,,,,,,P2,001,2019_Nov_12_1616,test_final,3.1.5,60.17383016724645,
,,,,18,0,18,0,8,0,8,0,,,,,,,,,,,,,,,,,,,,,,,,,,,,,,,,,,,,,,,306.8617626000196,306.3455604999326,,,,,,,,,,,,,,,,,,,,,,,,,,,,,,,,,,,,,,,,,,,,,,,,,,,,,,,,,,,,,,,,,,,,,,,,,,,,,,,,,,,,,,,,,,,,,,,,,,,,,,,,,,,,,,,,,,,,,P2,001,2019_Nov_12_1616,test_final,3.1.5,60.17383016724645,
,,,,18,0,18,0,9,0,9,0,,,,,,,,,,,,,,,,,,,,,,,,,,,,,,,,,,,,,,,308.16053999995347,307.6443705999991,,,,,,,,,,,,,,,,,,,,,,,,,,,,,,,,,,,,,,,,,,,,,,,,,,,,,,,,,,,,,,,,,,,,,,,,,,,,,,,,,,,,,,,,,,,,,,,,,,,,,,,,,,,,,,,,,,,,,P2,001,2019_Nov_12_1616,test_final,3.1.5,60.17383016724645,
,,,,19,0,19,0,0,0,0,0,,,,,,,,,,,,,,,,,,,,,,,,,,,,,,,,,,,,,,,324.5943514999235,None,lkqnxlzts,"['l', 'k', 'q', 'n', 'x', 'l', 'z', 't', 's']","[3.610787299927324, 3.704408699995838, 4.357203999999911, 6.433472999953665, 9.992188700009137, 10.637676700018346, 11.170407199999318, 11.640660299919546, 12.797152500017546, 14.585467499913648]",309.45930430002045,None,309.45930430002045,None,0,LKQNSRTXZV,309.45930430002045,None,,,,,,,,,,,,,,,,,,,,,,,,,,,,,,,,,,,,,,,,,,,,,,,,,,,,,,,,,,,,,,,,,,,,,,,,,,,,,,,,,,,,,,,,,,,,,,,,,,,,,,,,,,P2,001,2019_Nov_12_1616,test_final,3.1.5,60.17383016724645,
,,,,19,0,19,0,1,0,1,0,,,,,,,,,,,,,,,,,,,,,,,,,,,,,,,,,,,,,,,325.9100477999309,None,,,,,,,,,,,,,,,,,,,,,,,,,,,,,,,,,,,,,,,,,,,,,,,,,,,,,,,,,,,,,,,,,,,,,,,,,,,,,,,,,,,,,,,,,,,,,,,,,,,,,,,,,,,,,,,,,,,,,P2,001,2019_Nov_12_1616,test_final,3.1.5,60.17383016724645,
,,,,19,0,19,0,2,0,2,0,,,,,,,,,,,,,,,,,,,,,,,,,,,,,,,,,,,,,,,327.2084399999585,None,,,,,,,,,,,,,,,,,,,,,,,,,,,,,,,,,,,,,,,,,,,,,,,,,,,,,,,,,,,,,,,,,,,,,,,,,,,,,,,,,,,,,,,,,,,,,,,,,,,,,,,,,,,,,,,,,,,,,P2,001,2019_Nov_12_1616,test_final,3.1.5,60.17383016724645,
,,,,19,0,19,0,3,0,3,0,,,,,,,,,,,,,,,,,,,,,,,,,,,,,,,,,,,,,,,328.5074304000009,None,,,,,,,,,,,,,,,,,,,,,,,,,,,,,,,,,,,,,,,,,,,,,,,,,,,,,,,,,,,,,,,,,,,,,,,,,,,,,,,,,,,,,,,,,,,,,,,,,,,,,,,,,,,,,,,,,,,,,P2,001,2019_Nov_12_1616,test_final,3.1.5,60.17383016724645,
,,,,19,0,19,0,4,0,4,0,,,,,,,,,,,,,,,,,,,,,,,,,,,,,,,,,,,,,,,329.8058794999961,329.2934009999735,,,,,,,,,,,,,,,,,,,,,,,,,,,,,,,,,,,,,,,,,,,,,,,,,,,,,,,,,,,,,,,,,,,,,,,,,,,,,,,,,,,,,,,,,,,,,,,,,,,,,,,,,,,,,,,,,,,,,P2,001,2019_Nov_12_1616,test_final,3.1.5,60.17383016724645,
,,,,19,0,19,0,5,0,5,0,,,,,,,,,,,,,,,,,,,,,,,,,,,,,,,,,,,,,,,331.104253700003,330.58853159996215,,,,,,,,,,,,,,,,,,,,,,,,,,,,,,,,,,,,,,,,,,,,,,,,,,,,,,,,,,,,,,,,,,,,,,,,,,,,,,,,,,,,,,,,,,,,,,,,,,,,,,,,,,,,,,,,,,,,,P2,001,2019_Nov_12_1616,test_final,3.1.5,60.17383016724645,
,,,,19,0,19,0,6,0,6,0,,,,,,,,,,,,,,,,,,,,,,,,,,,,,,,,,,,,,,,332.4033967999276,331.88714170001913,,,,,,,,,,,,,,,,,,,,,,,,,,,,,,,,,,,,,,,,,,,,,,,,,,,,,,,,,,,,,,,,,,,,,,,,,,,,,,,,,,,,,,,,,,,,,,,,,,,,,,,,,,,,,,,,,,,,,P2,001,2019_Nov_12_1616,test_final,3.1.5,60.17383016724645,
,,,,19,0,19,0,7,0,7,0,,,,,,,,,,,,,,,,,,,,,,,,,,,,,,,,,,,,,,,333.70227619993966,333.18590509996284,,,,,,,,,,,,,,,,,,,,,,,,,,,,,,,,,,,,,,,,,,,,,,,,,,,,,,,,,,,,,,,,,,,,,,,,,,,,,,,,,,,,,,,,,,,,,,,,,,,,,,,,,,,,,,,,,,,,,P2,001,2019_Nov_12_1616,test_final,3.1.5,60.17383016724645,
,,,,19,0,19,0,8,0,8,0,,,,,,,,,,,,,,,,,,,,,,,,,,,,,,,,,,,,,,,335.00107949995436,334.4844347999897,,,,,,,,,,,,,,,,,,,,,,,,,,,,,,,,,,,,,,,,,,,,,,,,,,,,,,,,,,,,,,,,,,,,,,,,,,,,,,,,,,,,,,,,,,,,,,,,,,,,,,,,,,,,,,,,,,,,,P2,001,2019_Nov_12_1616,test_final,3.1.5,60.17383016724645,
,,,,19,0,19,0,9,0,9,0,,,,,,,,,,,,,,,,,,,,,,,,,,,,,,,,,,,,,,,336.299538900028,335.78352099994663,,,,,,,,,,,,,,,,,,,,,,,,,,,,,,,,,,,,,,,,,,,,,,,,,,,,,,,,,,,,,,,,,,,,,,,,,,,,,,,,,,,,,,,,,,,,,,,,,,,,,,,,,,,,,,,,,,,,,P2,001,2019_Nov_12_1616,test_final,3.1.5,60.17383016724645,
,,,,20,0,20,0,0,0,0,0,,,,,,,,,,,,,,,,,,,,,,,,,,,,,,,,,,,,,,,351.8511611999711,None,ntlrqxts,"['n', 't', 'l', 'r', 'q', 'x', 't', 's']","[2.9462595999939367, 3.8296663999790326, 4.2236006000312045, 5.937926699989475, 7.358173800050281, 7.923639300046489, 12.449000000022352, 12.689324900042266, 13.67691909999121]",337.5982375999447,None,337.5982375999447,None,0,NTRLHJKQXS,337.5982375999447,None,,,,,,,,,,,,,,,,,,,,,,,,,,,,,,,,,,,,,,,,,,,,,,,,,,,,,,,,,,,,,,,,,,,,,,,,,,,,,,,,,,,,,,,,,,,,,,,,,,,,,,,,,,P2,001,2019_Nov_12_1616,test_final,3.1.5,60.17383016724645,
,,,,20,0,20,0,1,0,1,0,,,,,,,,,,,,,,,,,,,,,,,,,,,,,,,,,,,,,,,353.1497750999406,352.6334209999768,,,,,,,,,,,,,,,,,,,,,,,,,,,,,,,,,,,,,,,,,,,,,,,,,,,,,,,,,,,,,,,,,,,,,,,,,,,,,,,,,,,,,,,,,,,,,,,,,,,,,,,,,,,,,,,,,,,,,P2,001,2019_Nov_12_1616,test_final,3.1.5,60.17383016724645,
,,,,20,0,20,0,2,0,2,0,,,,,,,,,,,,,,,,,,,,,,,,,,,,,,,,,,,,,,,354.4483038999606,353.93188829999417,,,,,,,,,,,,,,,,,,,,,,,,,,,,,,,,,,,,,,,,,,,,,,,,,,,,,,,,,,,,,,,,,,,,,,,,,,,,,,,,,,,,,,,,,,,,,,,,,,,,,,,,,,,,,,,,,,,,,P2,001,2019_Nov_12_1616,test_final,3.1.5,60.17383016724645,
,,,,20,0,20,0,3,0,3,0,,,,,,,,,,,,,,,,,,,,,,,,,,,,,,,,,,,,,,,355.7473384999903,355.2309542999137,,,,,,,,,,,,,,,,,,,,,,,,,,,,,,,,,,,,,,,,,,,,,,,,,,,,,,,,,,,,,,,,,,,,,,,,,,,,,,,,,,,,,,,,,,,,,,,,,,,,,,,,,,,,,,,,,,,,,P2,001,2019_Nov_12_1616,test_final,3.1.5,60.17383016724645,
,,,,20,0,20,0,4,0,4,0,,,,,,,,,,,,,,,,,,,,,,,,,,,,,,,,,,,,,,,357.0460805000039,356.52950920001604,,,,,,,,,,,,,,,,,,,,,,,,,,,,,,,,,,,,,,,,,,,,,,,,,,,,,,,,,,,,,,,,,,,,,,,,,,,,,,,,,,,,,,,,,,,,,,,,,,,,,,,,,,,,,,,,,,,,,P2,001,2019_Nov_12_1616,test_final,3.1.5,60.17383016724645,
,,,,20,0,20,0,5,0,5,0,,,,,,,,,,,,,,,,,,,,,,,,,,,,,,,,,,,,,,,358.3446958999848,357.82840499992017,,,,,,,,,,,,,,,,,,,,,,,,,,,,,,,,,,,,,,,,,,,,,,,,,,,,,,,,,,,,,,,,,,,,,,,,,,,,,,,,,,,,,,,,,,,,,,,,,,,,,,,,,,,,,,,,,,,,,P2,001,2019_Nov_12_1616,test_final,3.1.5,60.17383016724645,
,,,,20,0,20,0,6,0,6,0,,,,,,,,,,,,,,,,,,,,,,,,,,,,,,,,,,,,,,,359.64328479999676,359.1271530999802,,,,,,,,,,,,,,,,,,,,,,,,,,,,,,,,,,,,,,,,,,,,,,,,,,,,,,,,,,,,,,,,,,,,,,,,,,,,,,,,,,,,,,,,,,,,,,,,,,,,,,,,,,,,,,,,,,,,,P2,001,2019_Nov_12_1616,test_final,3.1.5,60.17383016724645,
,,,,20,0,20,0,7,0,7,0,,,,,,,,,,,,,,,,,,,,,,,,,,,,,,,,,,,,,,,360.94188709999435,360.42571749992203,,,,,,,,,,,,,,,,,,,,,,,,,,,,,,,,,,,,,,,,,,,,,,,,,,,,,,,,,,,,,,,,,,,,,,,,,,,,,,,,,,,,,,,,,,,,,,,,,,,,,,,,,,,,,,,,,,,,,P2,001,2019_Nov_12_1616,test_final,3.1.5,60.17383016724645,
,,,,20,0,20,0,8,0,8,0,,,,,,,,,,,,,,,,,,,,,,,,,,,,,,,,,,,,,,,362.24098020000383,361.72446179995313,,,,,,,,,,,,,,,,,,,,,,,,,,,,,,,,,,,,,,,,,,,,,,,,,,,,,,,,,,,,,,,,,,,,,,,,,,,,,,,,,,,,,,,,,,,,,,,,,,,,,,,,,,,,,,,,,,,,,P2,001,2019_Nov_12_1616,test_final,3.1.5,60.17383016724645,
,,,,20,0,20,0,9,0,9,0,,,,,,,,,,,,,,,,,,,,,,,,,,,,,,,,,,,,,,,363.53978909994476,363.0230803999584,,,,,,,,,,,,,,,,,,,,,,,,,,,,,,,,,,,,,,,,,,,,,,,,,,,,,,,,,,,,,,,,,,,,,,,,,,,,,,,,,,,,,,,,,,,,,,,,,,,,,,,,,,,,,,,,,,,,,P2,001,2019_Nov_12_1616,test_final,3.1.5,60.17383016724645,
,,,,,,,,,,,,,,,,,,,,,,,,,,,,,,,,,,,,,,,,,,,,,,,,,,,,zqrnklhxvn,"['z', 'q', 'r', 'n', 'k', 'l', 'h', 'x', 'v', 'n']","[2.31675640004687, 2.4590985000832006, 3.1805936000309885, 3.5427240000572056, 5.31398109998554, 5.408597800065763, 7.788493600091897, 8.172076900023967, 8.922760599991307, 9.0759913000511, 11.227207700023428]",364.8385140999453,None,364.8385140999453,None,0,ZQRSKLHXVN,364.8385140999453,None,376.6270081999246,None,space,7.165109400055371,376.6270081999246,None,,,,,,,,,,,,,,,,,,,,,,,,,,,,,,,,,,,,,,,,,,,,,,,,,,,,,,,,,,,,,,,,,,,,,,,,,,,,,,,,,,,,,,,,,,,,,,,,,,,,P2,001,2019_Nov_12_1616,test_final,3.1.5,60.17383016724645,
Practice,13,(3x8) - 19 ,5,,,,,,,,,0,0,0,0,0,0,0,12,,,,,,,,,,,,,,,,,,,,,,,,,,,,,,,,,,,,,,,,,,,,,,,,,,5,384.4523847999517,None,['5'],0,[3.994151800055988],384.4523847999517,None,384.4523847999517,None,[3.994151800055988],384.4523847999517,None,388.98142149997875,None,,,,,,,,,,,,,,,,,,,,,,,,,,,,,,,,,,,,,,,,,,,,,,,,,,,,,,,,,,,,,,,,,,,,,,,,,,,,,,,,,,,,,P2,001,2019_Nov_12_1616,test_final,3.1.5,60.17383016724645,
Practice,2,(1/1) - 1,0,,,,,,,,,0,0,0,0,0,1,1,1,,,,,,,,,,,,,,,,,,,,,,,,,,,,,,,,,,,,,,,,,,,,,,,,,,0,390.4800107999472,None,['0'],0,[1.8043714000377804],390.4800107999472,None,390.4800107999472,None,"[3.994151800055988, 1.8043714000377804]",390.4800107999472,None,392.8278076000279,None,,,,,,,,,,,,,,,,,,,,,,,,,,,,,,,,,,,,,,,,,,,,,,,,,,,,,,,,,,,,,,,,,,,,,,,,,,,,,,,,,,,,,P2,001,2019_Nov_12_1616,test_final,3.1.5,60.17383016724645,
Practice,7,(4x6) - 17,7,,,,,,,,,0,0,0,0,0,2,2,6,,,,,,,,,,,,,,,,,,,,,,,,,,,,,,,,,,,,,,,,,,,,,,,,,,7,394.3262181999162,None,['7'],0,[2.3673375999787822],394.3262181999162,None,394.3262181999162,None,"[3.994151800055988, 1.8043714000377804, 2.3673375999787822]",394.3262181999162,None,397.2400223999284,None,,,,,,,,,,,,,,,,,,,,,,,,,,,,,,,,,,,,,,,,,,,,,,,,,,,,,,,,,,,,,,,,,,,,,,,,,,,,,,,,,,,,,P2,001,2019_Nov_12_1616,test_final,3.1.5,60.17383016724645,
Practice,8,(3/3) + 5,6,,,,,,,,,0,0,0,0,0,3,3,7,,,,,,,,,,,,,,,,,,,,,,,,,,,,,,,,,,,,,,,,,,,,,,,,,,6,398.73851009993814,None,['6'],0,[1.8942016999935731],398.73851009993814,None,398.73851009993814,None,"[3.994151800055988, 1.8043714000377804, 2.3673375999787822, 1.8942016999935731]",398.73851009993814,None,401.16941179998685,None,,,,,,,,,,,,,,,,,,,,,,,,,,,,,,,,,,,,,,,,,,,,,,,,,,,,,,,,,,,,,,,,,,,,,,,,,,,,,,,,,,,,,P2,001,2019_Nov_12_1616,test_final,3.1.5,60.17383016724645,
Practice,4,(4x4) - 14,2,,,,,,,,,0,0,0,0,0,4,4,3,,,,,,,,,,,,,,,,,,,,,,,,,,,,,,,,,,,,,,,,,,,,,,,,,,2,402.6681547999615,None,['2'],0,[1.998997600050643],402.6681547999615,None,402.6681547999615,None,"[3.994151800055988, 1.8043714000377804, 2.3673375999787822, 1.8942016999935731, 1.998997600050643]",402.6681547999615,None,405.19894229993224,None,,,,,,,,,,,,,,,,,,,,,,,,,,,,,,,,,,,,,,,,,,,,,,,,,,,,,,,,,,,,,,,,,,,,,,,,,,,,,,,,,,,,,P2,001,2019_Nov_12_1616,test_final,3.1.5,60.17383016724645,
Practice,3,(7x2) - 5,9,,,,,,,,,0,0,0,0,0,5,5,2,,,,,,,,,,,,,,,,,,,,,,,,,,,,,,,,,,,,,,,,,,,,,,,,,,9,406.6974290999351,None,['9'],0,[1.6826831999933347],406.6974290999351,None,406.6974290999351,None,"[3.994151800055988, 1.8043714000377804, 2.3673375999787822, 1.8942016999935731, 1.998997600050643, 1.6826831999933347]",406.6974290999351,None,408.91198530001566,None,,,,,,,,,,,,,,,,,,,,,,,,,,,,,,,,,,,,,,,,,,,,,,,,,,,,,,,,,,,,,,,,,,,,,,,,,,,,,,,,,,,,,P2,001,2019_Nov_12_1616,test_final,3.1.5,60.17383016724645,
Practice,9,(4/2) + 5,7,,,,,,,,,0,0,0,0,0,6,6,8,,,,,,,,,,,,,,,,,,,,,,,,,,,,,,,,,,,,,,,,,,,,,,,,,,1,410.41046429995913,None,['1'],0,[1.779987100046128],410.41046429995913,None,410.41046429995913,None,"[3.994151800055988, 1.8043714000377804, 2.3673375999787822, 1.8942016999935731, 1.998997600050643, 1.6826831999933347, 1.779987100046128]",410.41046429995913,None,412.7248075000243,None,,,,,,,,,,,,,,,,,,,,,,,,,,,,,,,,,,,,,,,,,,,,,,,,,,,,,,,,,,,,,,,,,,,,,,,,,,,,,,,,,,,,,P2,001,2019_Nov_12_1616,test_final,3.1.5,60.17383016724645,
Practice,10,(8/4) + 3,5,,,,,,,,,0,0,0,0,0,7,7,9,,,,,,,,,,,,,,,,,,,,,,,,,,,,,,,,,,,,,,,,,,,,,,,,,,5,414.2232797999168,None,['5'],0,[2.5859877000330016],414.2232797999168,None,414.2232797999168,None,"[3.994151800055988, 1.8043714000377804, 2.3673375999787822, 1.8942016999935731, 1.998997600050643, 1.6826831999933347, 1.779987100046128, 2.5859877000330016]",414.2232797999168,None,417.3530742999865,None,,,,,,,,,,,,,,,,,,,,,,,,,,,,,,,,,,,,,,,,,,,,,,,,,,,,,,,,,,,,,,,,,,,,,,,,,,,,,,,,,,,,,P2,001,2019_Nov_12_1616,test_final,3.1.5,60.17383016724645,
Practice,6,(2x6) - 8,4,,,,,,,,,0,0,0,0,0,8,8,5,,,,,,,,,,,,,,,,,,,,,,,,,,,,,,,,,,,,,,,,,,,,,,,,,,4,418.85215279995464,None,['4'],0,[1.6052820000331849],418.85215279995464,None,418.85215279995464,None,"[3.994151800055988, 1.8043714000377804, 2.3673375999787822, 1.8942016999935731, 1.998997600050643, 1.6826831999933347, 1.779987100046128, 2.5859877000330016, 1.6052820000331849]",418.85215279995464,None,421.00000399991404,None,,,,,,,,,,,,,,,,,,,,,,,,,,,,,,,,,,,,,,,,,,,,,,,,,,,,,,,,,,,,,,,,,,,,,,,,,,,,,,,,,,,,,P2,001,2019_Nov_12_1616,test_final,3.1.5,60.17383016724645,
Practice,1,(1x2) + 1,3,,,,,,,,,0,0,0,0,0,9,9,0,,,,,,,,,,,,,,,,,,,,,,,,,,,,,,,,,,,,,,,,,,,,,,,,,,3,422.49840449995827,None,['3'],0,[1.4313195999711752],422.49840449995827,None,422.49840449995827,None,"[3.994151800055988, 1.8043714000377804, 2.3673375999787822, 1.8942016999935731, 1.998997600050643, 1.6826831999933347, 1.779987100046128, 2.5859877000330016, 1.6052820000331849, 1.4313195999711752]",422.49840449995827,None,424.46331529994495,None,,,,,,,,,,,,,,,,,,,,,,,,,,,,,,,,,,,,,,,,,,,,,,,,,,,,,,,,,,,,,,,,,,,,,,,,,,,,,,,,,,,,,P2,001,2019_Nov_12_1616,test_final,3.1.5,60.17383016724645,
Practice,12,(8/2) + 4,8,,,,,,,,,0,0,0,0,0,10,10,11,,,,,,,,,,,,,,,,,,,,,,,,,,,,,,,,,,,,,,,,,,,,,,,,,,8,425.96162999991793,None,['8'],0,[1.678490599966608],425.96162999991793,None,425.96162999991793,None,"[3.994151800055988, 1.8043714000377804, 2.3673375999787822, 1.8942016999935731, 1.998997600050643, 1.6826831999933347, 1.779987100046128, 2.5859877000330016, 1.6052820000331849, 1.4313195999711752, 1.678490599966608]",425.96162999991793,None,428.1765112000285,None,,,,,,,,,,,,,,,,,,,,,,,,,,,,,,,,,,,,,,,,,,,,,,,,,,,,,,,,,,,,,,,,,,,,,,,,,,,,,,,,,,,,,P2,001,2019_Nov_12_1616,test_final,3.1.5,60.17383016724645,
Practice,14,(6/3) + 4 ,6,,,,,,,,,0,0,0,0,0,11,11,13,,,,,,,,,,,,,,,,,,,,,,,,,,,,,,,,,,,,,,,,,,,,,,,,,,6,429.674628400011,None,['6'],0,[1.5318603999912739],429.674628400011,None,429.674628400011,None,"[3.994151800055988, 1.8043714000377804, 2.3673375999787822, 1.8942016999935731, 1.998997600050643, 1.6826831999933347, 1.779987100046128, 2.5859877000330016, 1.6052820000331849, 1.4313195999711752, 1.678490599966608, 1.5318603999912739]",429.674628400011,None,431.7393685999559,None,,,,,,,,,,,,,,,,,,,,,,,,,,,,,,,,,,,,,,,,,,,,,,,,,,,,,,,,,,,,,,,,,,,,,,,,,,,,,,,,,,,,,P2,001,2019_Nov_12_1616,test_final,3.1.5,60.17383016724645,
Practice,5,(3/3) + 2,3,,,,,,,,,0,0,0,0,0,12,12,4,,,,,,,,,,,,,,,,,,,,,,,,,,,,,,,,,,,,,,,,,,,,,,,,,,3,433.2378521999344,None,['3'],0,[1.344693799968809],433.2378521999344,None,433.2378521999344,None,"[3.994151800055988, 1.8043714000377804, 2.3673375999787822, 1.8942016999935731, 1.998997600050643, 1.6826831999933347, 1.779987100046128, 2.5859877000330016, 1.6052820000331849, 1.4313195999711752, 1.678490599966608, 1.5318603999912739, 1.344693799968809]",433.2378521999344,None,435.1193012999138,None,,,,,,,,,,,,,,,,,,,,,,,,,,,,,,,,,,,,,,,,,,,,,,,,,,,,,,,,,,,,,,,,,,,,,,,,,,,,,,,,,,,,,P2,001,2019_Nov_12_1616,test_final,3.1.5,60.17383016724645,
Practice,11,(5x3) - 7,8,,,,,,,,,0,0,0,0,0,13,13,10,,,,,,,,,,,,,,,,,,,,,,,,,,,,,,,,,,,,,,,,,,,,,,,,,,8,436.61790349998046,None,['8'],0,[1.8583574999356642],436.61790349998046,None,436.61790349998046,None,"[3.994151800055988, 1.8043714000377804, 2.3673375999787822, 1.8942016999935731, 1.998997600050643, 1.6826831999933347, 1.779987100046128, 2.5859877000330016, 1.6052820000331849, 1.4313195999711752, 1.678490599966608, 1.5318603999912739, 1.344693799968809, 1.8583574999356642]",436.61790349998046,None,439.01586129993666,None,,,,,,,,,,,,,,,,,,,,,,,,,,,,,,,,,,,,,,,,,,,,,,,,,,,,,,,,,,,,,,,,,,,,,,,,,,,,,,,,,,,,,P2,001,2019_Nov_12_1616,test_final,3.1.5,60.17383016724645,
Practice,15,(9/3) - 2,1,,,,,,,,,0,0,0,0,0,14,14,14,,,,,,,,,,,,,,,,,,,,,,,,,,,,,,,,,,,,,,,,,,,,,,,,,,1,440.5143875000067,None,['1'],0,[1.524501399951987],440.5143875000067,None,440.5143875000067,None,"[3.994151800055988, 1.8043714000377804, 2.3673375999787822, 1.8942016999935731, 1.998997600050643, 1.6826831999933347, 1.779987100046128, 2.5859877000330016, 1.6052820000331849, 1.4313195999711752, 1.678490599966608, 1.5318603999912739, 1.344693799968809, 1.8583574999356642, 1.524501399951987]",440.5143875000067,None,442.578906300012,None,,,,,,,,,,,,,,,,,,,,,,,,,,,,,,,,,,,,,,,,,,,,,,,,,,,,,,,,,,,,,,,,,,,,,,,,,,,,,,,,,,,,,P2,001,2019_Nov_12_1616,test_final,3.1.5,60.17383016724645,
,,,,,,,,,,,,0,0,0,0,,,,,,,,,,,,,,,,,,,,,,,,,,,,,,,,,,,,,,,,,,,,,,,,,,,,,,,,,,,,,,,,,,,,,0.9333333333333333,29.082223400007933,1.9388148933338623,6.074676509926468,0.6363791589886472,3.580673123524572,444.0774305999512,None,space,2.333806800073944,444.0774305999512,None,,,,,,,,,,,,,,,,,,,,,,,,,,,,,,,,,,,,,,,,,,,,,,,,,,,,,,,,,,,,,,,,,,,,,,,,,P2,001,2019_Nov_12_1616,test_final,3.1.5,60.17383016724645,
,,,,,,,,,,,,,,,,,,,,,,,,,,,,,,,,,,,,,,,,,,,,,,,,,,,,,,,,,,,,,,,,,,,,,,,,,,,,,,,,,,,,,,,,,,,,,,,,446.9908487999346,None,space,6.9235031000571325,446.9908487999346,None,,,,,,,,,,,,,,,,,,,,,,,,,,,,,,,,,,,,,,,,,,,,,,,,,,,,,,,,,,,,,,,,,,,P2,001,2019_Nov_12_1616,test_final,3.1.5,60.17383016724645,
Practice,11,(5x3) - 7,8,,,,,,,,,,,,,,,,,0,0,0,0,0,0,0,0,0,0,0,10,,,,,,,,,,,,,,,,,,,,,,,,,,,,,,,,,,,,,,8,,,,,,,,,,,,,,,,,,,,,,,,,,,,,,,,,454.5003390000202,None,['8'],0,[1.9119124999269843],454.5003390000202,None,454.5003390000202,None,454.5003390000202,None,1,456.50681439996697,None,456.50681439996697,None,,,,,,,,,,,,,,,,,,,,,,,,,,,,,,,,,,,,,,,,,,,,,,,,,,,P2,001,2019_Nov_12_1616,test_final,3.1.5,60.17383016724645,
,,,,,,,,,,,,,,,,,,,,0,0,0,0,0,0,0,0,,,,,,,,,,,,,,,,,,,,,,,,,,,,,,,,,,,,,,,,,,,,,,,,,,,,,,,,,,,,,,,,,,,,,,,,,,,,,,,,,,,,,,,,,,,457.8469205999281,None,,,,,,,,,,,,,,,,,,,,,,,,,,,,,,,,,,,,,,,,,,,,,,,,,P2,001,2019_Nov_12_1616,test_final,3.1.5,60.17383016724645,
Practice,12,(8/2) + 4,8,,,,,,,,,,,,,,,,,0,0,0,0,1,0,1,0,0,0,0,11,,,,,,,,,,,,,,,,,,,,,,,,,,,,,,,,,,,,,,8,,,,,,,,,,,,,,,,,,,,,,,,,,,,,,,,,459.1623639999889,None,['8'],0,[2.254523199982941],459.1623639999889,None,459.1623639999889,None,459.1623639999889,None,1,461.50331369997,None,461.50331369997,None,,,,,,,,,,,,,,,,,,,,,,,,,,,,,,,,,,,,,,,,,,,,,,,,,,,P2,001,2019_Nov_12_1616,test_final,3.1.5,60.17383016724645,
,,,,,,,,,,,,,,,,,,,,0,0,0,0,1,0,1,0,,,,,,,,,,,,,,,,,,,,,,,,,,,,,,,,,,,,,,,,,,,,,,,,,,,,,,,,,,,,,,,,,,,,,,,,,,,,,,,,,,,,,,,,,,,462.8589491000166,None,,,,,,,,,,,,,,,,,,,,,,,,,,,,,,,,,,,,,,,,,,,,,,,,,P2,001,2019_Nov_12_1616,test_final,3.1.5,60.17383016724645,
,,,,,,,,,,,,,,,,,,,,0,0,0,0,,,,,,,,,,,,,,,,,,,,,,,,,,,,,,,,,,,,,,,,,,,,,,,,,,,,,,,,,,,,,,,,,,,,,,,,,,,,,,,,,,,,,,,,,,,,,,,,,jv,"['j', 'v']",0,"[1.110115799936466, 1.356410300009884, 2.1291401999769732]",464.1412953999825,None,464.1412953999825,None,464.1412953999825,None,1,466.82156019995455,None,,,,,,,,,,,,,,,,,,,,,,,,,,,,,,,,,,,,P2,001,2019_Nov_12_1616,test_final,3.1.5,60.17383016724645,
Practice,7,(4x6) - 17,7,,,,,,,,,,,,,,,,,1,0,1,0,0,0,0,0,0,0,0,6,,,,,,,,,,,,,,,,,,,,,,,,,,,,,,,,,,,,,,7,,,,,,,,,,,,,,,,,,,,,,,,,,,,,,,,,468.37027349998243,None,['7'],0,[1.577615199959837],468.37027349998243,None,468.37027349998243,None,468.37027349998243,None,1,470.0326604000293,None,470.0326604000293,None,,,,,,,,,,,,,,,,,,,,,,,,,,,,,,,,,,,,,,,,,,,,,,,,,,,P2,001,2019_Nov_12_1616,test_final,3.1.5,60.17383016724645,
,,,,,,,,,,,,,,,,,,,,1,0,1,0,0,0,0,0,,,,,,,,,,,,,,,,,,,,,,,,,,,,,,,,,,,,,,,,,,,,,,,,,,,,,,,,,,,,,,,,,,,,,,,,,,,,,,,,,,,,,,,,,,,471.38394999993034,None,,,,,,,,,,,,,,,,,,,,,,,,,,,,,,,,,,,,,,,,,,,,,,,,,P2,001,2019_Nov_12_1616,test_final,3.1.5,60.17383016724645,
Practice,13,(3x8) - 19 ,5,,,,,,,,,,,,,,,,,1,0,1,0,1,0,1,0,0,0,0,12,,,,,,,,,,,,,,,,,,,,,,,,,,,,,,,,,,,,,,5,,,,,,,,,,,,,,,,,,,,,,,,,,,,,,,,,472.69941469992045,None,['5'],0,[1.9647660000482574],472.69941469992045,None,472.69941469992045,None,472.69941469992045,None,1,474.7399265000131,None,474.7399265000131,None,,,,,,,,,,,,,,,,,,,,,,,,,,,,,,,,,,,,,,,,,,,,,,,,,,,P2,001,2019_Nov_12_1616,test_final,3.1.5,60.17383016724645,
,,,,,,,,,,,,,,,,,,,,1,0,1,0,1,0,1,0,,,,,,,,,,,,,,,,,,,,,,,,,,,,,,,,,,,,,,,,,,,,,,,,,,,,,,,,,,,,,,,,,,,,,,,,,,,,,,,,,,,,,,,,,,,476.07885129994247,None,,,,,,,,,,,,,,,,,,,,,,,,,,,,,,,,,,,,,,,,,,,,,,,,,P2,001,2019_Nov_12_1616,test_final,3.1.5,60.17383016724645,
,,,,,,,,,,,,,,,,,,,,1,0,1,0,,,,,,,,,,,,,,,,,,,,,,,,,,,,,,,,,,,,,,,,,,,,,,,,,,,,,,,,,,,,,,,,,,,,,,,,,,,,,,,,,,,,,,,,,,,,,,,,,kr,"['k', 'r']",0,"[0.8373424999881536, 1.1522716000908986, 1.4671728999819607]",477.3775129999267,None,477.3775129999267,None,477.3775129999267,None,1,479.4088454999728,None,,,,,,,,,,,,,,,,,,,,,,,,,,,,,,,,,,,,P2,001,2019_Nov_12_1616,test_final,3.1.5,60.17383016724645,
Practice,5,(3/3) + 2,3,,,,,,,,,,,,,,,,,2,0,2,0,0,0,0,0,0,0,0,4,,,,,,,,,,,,,,,,,,,,,,,,,,,,,,,,,,,,,,3,,,,,,,,,,,,,,,,,,,,,,,,,,,,,,,,,480.92414469993673,None,['3'],0,[1.9999969999771565],480.92414469993673,None,480.92414469993673,None,480.92414469993673,None,1,482.9896782999858,None,482.9896782999858,None,,,,,,,,,,,,,,,,,,,,,,,,,,,,,,,,,,,,,,,,,,,,,,,,,,,P2,001,2019_Nov_12_1616,test_final,3.1.5,60.17383016724645,
,,,,,,,,,,,,,,,,,,,,2,0,2,0,0,0,0,0,,,,,,,,,,,,,,,,,,,,,,,,,,,,,,,,,,,,,,,,,,,,,,,,,,,,,,,,,,,,,,,,,,,,,,,,,,,,,,,,,,,,,,,,,,,484.3205859999871,None,,,,,,,,,,,,,,,,,,,,,,,,,,,,,,,,,,,,,,,,,,,,,,,,,P2,001,2019_Nov_12_1616,test_final,3.1.5,60.17383016724645,
Practice,11,(5x3) - 7,8,,,,,,,,,,,,,,,,,2,0,2,0,1,0,1,0,0,0,0,10,,,,,,,,,,,,,,,,,,,,,,,,,,,,,,,,,,,,,,8,,,,,,,,,,,,,,,,,,,,,,,,,,,,,,,,,485.6362333999714,None,['8'],0,[1.3374382000183687],485.6362333999714,None,485.6362333999714,None,485.6362333999714,None,1,487.0556279999437,None,487.0556279999437,None,,,,,,,,,,,,,,,,,,,,,,,,,,,,,,,,,,,,,,,,,,,,,,,,,,,P2,001,2019_Nov_12_1616,test_final,3.1.5,60.17383016724645,
,,,,,,,,,,,,,,,,,,,,2,0,2,0,1,0,1,0,,,,,,,,,,,,,,,,,,,,,,,,,,,,,,,,,,,,,,,,,,,,,,,,,,,,,,,,,,,,,,,,,,,,,,,,,,,,,,,,,,,,,,,,,,,488.3832954999525,None,,,,,,,,,,,,,,,,,,,,,,,,,,,,,,,,,,,,,,,,,,,,,,,,,P2,001,2019_Nov_12_1616,test_final,3.1.5,60.17383016724645,
,,,,,,,,,,,,,,,,,,,,2,0,2,0,,,,,,,,,,,,,,,,,,,,,,,,,,,,,,,,,,,,,,,,,,,,,,,,,,,,,,,,,,,,,,,,,,,,,,,,,,,,,,,,,,,,,,,,,,,,,,,,,xs,"['x', 's']",0,"[1.2661318000173196, 1.4235381000908092, 1.8089874000288546]",489.6823029000079,None,489.6823029000079,None,489.6823029000079,None,1,492.04649580002297,None,,,,,,,,,,,,,,,,,,,,,,,,,,,,,,,,,,,,P2,001,2019_Nov_12_1616,test_final,3.1.5,60.17383016724645,
,,,,,,,,,,,,,,,,,,,,,,,,,,,,,,,,,,,,,,,,,,,,,,,,,,,,,,,,,,,,,,,,,,,,,,,,,,,,,,,,,,,,,,,,,,,,,,,,,,,,,,,,,,,,,,,,,,,,,,,,,,,,,,,,,,,,,493.545701899915,None,space,6.71184990007896,493.545701899915,None,,,,,,,,,,,,,,,,,,,,,,,,,,,,,,P2,001,2019_Nov_12_1616,test_final,3.1.5,60.17383016724645,
Practice,15,(9/3) - 2,1,,,,,,,,,,,,,,,,,,,,,,,,,,,,,0,0,0,0,0,0,0,0,0,0,0,14,,,,,,,,,,,,,,,,,,,,,,,,,,1,,,,,,,,,,,,,,,,,,,,,,,,,,,,,,,,,,,,,,,,,,,,1,,,,,,,,,,,,,,,,,,,,,,,,,,500.8545672999462,None,['1'],0,[1.5851530000800267],500.8545672999462,None,500.8545672999462,None,500.8545672999462,None,502.5362375000259,None,502.5362375000259,None,,,,,,,,,,,,,,,P2,001,2019_Nov_12_1616,test_final,3.1.5,60.17383016724645,
,,,,,,,,,,,,,,,,,,,,,,,,,,,,,,,,0,0,0,0,0,0,0,0,,,,,,,,,,,,,,,,,,,,,,,,,,,,,,,,,,,,,,,,,,,,,,,,,,,,,,,,,,,,,,,,,,,,,,,,,,,,,,,,,,,,,,,,,,,,,,,,,,,,,,,,,,,,,,,,,,,503.8853952999925,None,,,,,,,,,,,,,P2,001,2019_Nov_12_1616,test_final,3.1.5,60.17383016724645,
Practice,12,(8/2) + 4,8,,,,,,,,,,,,,,,,,,,,,,,,,,,,,0,0,0,0,1,0,1,0,0,0,0,11,,,,,,,,,,,,,,,,,,,,,,,,,,8,,,,,,,,,,,,,,,,,,,,,,,,,,,,,,,,,,,,,,,,,,,,1,,,,,,,,,,,,,,,,,,,,,,,,,,505.16763299994636,None,['8'],0,[1.3802736999932677],505.16763299994636,None,505.16763299994636,None,505.16763299994636,None,506.6284687999869,None,506.6284687999869,None,,,,,,,,,,,,,,,P2,001,2019_Nov_12_1616,test_final,3.1.5,60.17383016724645,
,,,,,,,,,,,,,,,,,,,,,,,,,,,,,,,,0,0,0,0,1,0,1,0,,,,,,,,,,,,,,,,,,,,,,,,,,,,,,,,,,,,,,,,,,,,,,,,,,,,,,,,,,,,,,,,,,,,,,,,,,,,,,,,,,,,,,,,,,,,,,,,,,,,,,,,,,,,,,,,,,,507.9810987999663,None,,,,,,,,,,,,,P2,001,2019_Nov_12_1616,test_final,3.1.5,60.17383016724645,
,,,,,,,,,,,,,,,,,,,,,,,,,,,,,,,,0,0,0,0,,,,,,,,,,,,,,,,,,,,,,,,,,,,,,,,,,,,,,,,,,,,,,,,,,,,,,,,,,,,,,,,,,,,,,,,,,,,,,,,,,,,,,,,,,,,,,,,,,,,,,,,,,,,,,,,,,,,,,,,,ls,"['l', 's']",0,"[0.9057778000133112, 1.2066931000445038, 1.5951817000750452]",509.2634901999263,None,509.2634901999263,None,1,LS,509.2634901999263,None,P2,001,2019_Nov_12_1616,test_final,3.1.5,60.17383016724645,
Practice,4,(4x4) - 14,2,,,,,,,,,,,,,,,,,,,,,,,,,,,,,1,0,1,0,0,0,0,0,0,0,0,3,,,,,,,,,,,,,,,,,,,,,,,,,,2,,,,,,,,,,,,,,,,,,,,,,,,,,,,,,,,,,,,,,,,,,,,1,,,,,,,,,,,,,,,,,,,,,,,,,,511.4445501000155,None,['2'],0,[1.5839402000419796],511.4445501000155,None,511.4445501000155,None,511.4445501000155,None,513.1199577000225,None,513.1199577000225,None,,,,,,,,,,,,,,,P2,001,2019_Nov_12_1616,test_final,3.1.5,60.17383016724645,
,,,,,,,,,,,,,,,,,,,,,,,,,,,,,,,,1,0,1,0,0,0,0,0,,,,,,,,,,,,,,,,,,,,,,,,,,,,,,,,,,,,,,,,,,,,,,,,,,,,,,,,,,,,,,,,,,,,,,,,,,,,,,,,,,,,,,,,,,,,,,,,,,,,,,,,,,,,,,,,,,,514.474887099932,None,,,,,,,,,,,,,P2,001,2019_Nov_12_1616,test_final,3.1.5,60.17383016724645,
Practice,2,(1/1) - 1,0,,,,,,,,,,,,,,,,,,,,,,,,,,,,,1,0,1,0,1,0,1,0,0,0,0,1,,,,,,,,,,,,,,,,,,,,,,,,,,0,,,,,,,,,,,,,,,,,,,,,,,,,,,,,,,,,,,,,,,,,,,,1,,,,,,,,,,,,,,,,,,,,,,,,,,515.790353499935,None,['0'],0,[1.2771730999229476],515.790353499935,None,515.790353499935,None,515.790353499935,None,517.1538114999421,None,517.1538114999421,None,,,,,,,,,,,,,,,P2,001,2019_Nov_12_1616,test_final,3.1.5,60.17383016724645,
,,,,,,,,,,,,,,,,,,,,,,,,,,,,,,,,1,0,1,0,1,0,1,0,,,,,,,,,,,,,,,,,,,,,,,,,,,,,,,,,,,,,,,,,,,,,,,,,,,,,,,,,,,,,,,,,,,,,,,,,,,,,,,,,,,,,,,,,,,,,,,,,,,,,,,,,,,,,,,,,,,518.5043543999782,None,,,,,,,,,,,,,P2,001,2019_Nov_12_1616,test_final,3.1.5,60.17383016724645,
Practice,12,(8/2) + 4,8,,,,,,,,,,,,,,,,,,,,,,,,,,,,,1,0,1,0,2,0,2,0,0,0,0,11,,,,,,,,,,,,,,,,,,,,,,,,,,8,,,,,,,,,,,,,,,,,,,,,,,,,,,,,,,,,,,,,,,,,,,,1,,,,,,,,,,,,,,,,,,,,,,,,,,519.8198527999921,None,['8'],0,[1.92376170004718],519.8198527999921,None,519.8198527999921,None,519.8198527999921,None,521.8209276000271,None,521.8209276000271,None,,,,,,,,,,,,,,,P2,001,2019_Nov_12_1616,test_final,3.1.5,60.17383016724645,
,,,,,,,,,,,,,,,,,,,,,,,,,,,,,,,,1,0,1,0,2,0,2,0,,,,,,,,,,,,,,,,,,,,,,,,,,,,,,,,,,,,,,,,,,,,,,,,,,,,,,,,,,,,,,,,,,,,,,,,,,,,,,,,,,,,,,,,,,,,,,,,,,,,,,,,,,,,,,,,,,,523.1666512999218,None,,,,,,,,,,,,,P2,001,2019_Nov_12_1616,test_final,3.1.5,60.17383016724645,
,,,,,,,,,,,,,,,,,,,,,,,,,,,,,,,,1,0,1,0,,,,,,,,,,,,,,,,,,,,,,,,,,,,,,,,,,,,,,,,,,,,,,,,,,,,,,,,,,,,,,,,,,,,,,,,,,,,,,,,,,,,,,,,,,,,,,,,,,,,,,,,,,,,,,,,,,,,,,,,,lzr,"['l', 'z', 'r']",0,"[0.837848800001666, 1.2230144999921322, 1.333822900080122, 1.7233421000419185]",524.4485297999345,None,524.4485297999345,None,1,LZR,524.4485297999345,None,P2,001,2019_Nov_12_1616,test_final,3.1.5,60.17383016724645,
Practice,1,(1x2) + 1,3,,,,,,,,,,,,,,,,,,,,,,,,,,,,,2,0,2,0,0,0,0,0,0,0,0,0,,,,,,,,,,,,,,,,,,,,,,,,,,3,,,,,,,,,,,,,,,,,,,,,,,,,,,,,,,,,,,,,,,,,,,,1,,,,,,,,,,,,,,,,,,,,,,,,,,526.7463698999491,None,['3'],0,[1.4382430999539793],526.7463698999491,None,526.7463698999491,None,526.7463698999491,None,528.2890204000287,None,528.2890204000287,None,,,,,,,,,,,,,,,P2,001,2019_Nov_12_1616,test_final,3.1.5,60.17383016724645,
,,,,,,,,,,,,,,,,,,,,,,,,,,,,,,,,2,0,2,0,0,0,0,0,,,,,,,,,,,,,,,,,,,,,,,,,,,,,,,,,,,,,,,,,,,,,,,,,,,,,,,,,,,,,,,,,,,,,,,,,,,,,,,,,,,,,,,,,,,,,,,,,,,,,,,,,,,,,,,,,,,529.643501100014,None,,,,,,,,,,,,,P2,001,2019_Nov_12_1616,test_final,3.1.5,60.17383016724645,
Practice,7,(4x6) - 17,7,,,,,,,,,,,,,,,,,,,,,,,,,,,,,2,0,2,0,1,0,1,0,0,0,0,6,,,,,,,,,,,,,,,,,,,,,,,,,,7,,,,,,,,,,,,,,,,,,,,,,,,,,,,,,,,,,,,,,,,,,,,1,,,,,,,,,,,,,,,,,,,,,,,,,,530.9586047999328,None,['7'],0,[2.707622900023125],530.9586047999328,None,530.9586047999328,None,530.9586047999328,None,533.7509564999491,None,533.7509564999491,None,,,,,,,,,,,,,,,P2,001,2019_Nov_12_1616,test_final,3.1.5,60.17383016724645,
,,,,,,,,,,,,,,,,,,,,,,,,,,,,,,,,2,0,2,0,1,0,1,0,,,,,,,,,,,,,,,,,,,,,,,,,,,,,,,,,,,,,,,,,,,,,,,,,,,,,,,,,,,,,,,,,,,,,,,,,,,,,,,,,,,,,,,,,,,,,,,,,,,,,,,,,,,,,,,,,,,535.0877659999533,None,,,,,,,,,,,,,P2,001,2019_Nov_12_1616,test_final,3.1.5,60.17383016724645,
Practice,11,(5x3) - 7,8,,,,,,,,,,,,,,,,,,,,,,,,,,,,,2,0,2,0,2,0,2,0,0,0,0,10,,,,,,,,,,,,,,,,,,,,,,,,,,8,,,,,,,,,,,,,,,,,,,,,,,,,,,,,,,,,,,,,,,,,,,,1,,,,,,,,,,,,,,,,,,,,,,,,,,536.419999799924,None,['8'],0,[1.4011802000459284],536.419999799924,None,536.419999799924,None,536.419999799924,None,537.9201922999928,None,537.9201922999928,None,,,,,,,,,,,,,,,P2,001,2019_Nov_12_1616,test_final,3.1.5,60.17383016724645,
,,,,,,,,,,,,,,,,,,,,,,,,,,,,,,,,2,0,2,0,2,0,2,0,,,,,,,,,,,,,,,,,,,,,,,,,,,,,,,,,,,,,,,,,,,,,,,,,,,,,,,,,,,,,,,,,,,,,,,,,,,,,,,,,,,,,,,,,,,,,,,,,,,,,,,,,,,,,,,,,,,539.267187600024,None,,,,,,,,,,,,,P2,001,2019_Nov_12_1616,test_final,3.1.5,60.17383016724645,
Practice,1,(1x2) + 1,3,,,,,,,,,,,,,,,,,,,,,,,,,,,,,2,0,2,0,3,0,3,0,0,0,0,0,,,,,,,,,,,,,,,,,,,,,,,,,,3,,,,,,,,,,,,,,,,,,,,,,,,,,,,,,,,,,,,,,,,,,,,1,,,,,,,,,,,,,,,,,,,,,,,,,,540.582704499946,None,['3'],0,[2.078460199991241],540.582704499946,None,540.582704499946,None,540.582704499946,None,542.7446623999858,None,542.7446623999858,None,,,,,,,,,,,,,,,P2,001,2019_Nov_12_1616,test_final,3.1.5,60.17383016724645,
,,,,,,,,,,,,,,,,,,,,,,,,,,,,,,,,2,0,2,0,3,0,3,0,,,,,,,,,,,,,,,,,,,,,,,,,,,,,,,,,,,,,,,,,,,,,,,,,,,,,,,,,,,,,,,,,,,,,,,,,,,,,,,,,,,,,,,,,,,,,,,,,,,,,,,,,,,,,,,,,,,544.079005699954,None,,,,,,,,,,,,,P2,001,2019_Nov_12_1616,test_final,3.1.5,60.17383016724645,
,,,,,,,,,,,,,,,,,,,,,,,,,,,,,,,,2,0,2,0,,,,,,,,,,,,,,,,,,,,,,,,,,,,,,,,,,,,,,,,,,,,,,,,,,,,,,,,,,,,,,,,,,,,,,,,,,,,,,,,,,,,,,,,,,,,,,,,,,,,,,,,,,,,,,,,,,,,,,,,,rlzh,"['r', 'l', 'z', 'h']",0,"[0.8225776000181213, 1.3141625999705866, 1.8213501999853179, 2.2361585999606177, 2.9679688999895006]",545.3779761999613,None,545.3779761999613,None,1,RLZH,545.3779761999613,None,P2,001,2019_Nov_12_1616,test_final,3.1.5,60.17383016724645,
Practice,15,(9/3) - 2,1,,,,,,,,,,,,,,,,,,,,,,,,,,,,,3,0,3,0,0,0,0,0,0,0,0,14,,,,,,,,,,,,,,,,,,,,,,,,,,1,,,,,,,,,,,,,,,,,,,,,,,,,,,,,,,,,,,,,,,,,,,,1,,,,,,,,,,,,,,,,,,,,,,,,,,548.9413911999436,None,['1'],0,[1.3659954000031576],548.9413911999436,None,548.9413911999436,None,548.9413911999436,None,550.3929649000056,None,550.3929649000056,None,,,,,,,,,,,,,,,P2,001,2019_Nov_12_1616,test_final,3.1.5,60.17383016724645,
,,,,,,,,,,,,,,,,,,,,,,,,,,,,,,,,3,0,3,0,0,0,0,0,,,,,,,,,,,,,,,,,,,,,,,,,,,,,,,,,,,,,,,,,,,,,,,,,,,,,,,,,,,,,,,,,,,,,,,,,,,,,,,,,,,,,,,,,,,,,,,,,,,,,,,,,,,,,,,,,,,551.7384871999966,None,,,,,,,,,,,,,P2,001,2019_Nov_12_1616,test_final,3.1.5,60.17383016724645,
Practice,6,(2x6) - 8,4,,,,,,,,,,,,,,,,,,,,,,,,,,,,,3,0,3,0,1,0,1,0,0,0,0,5,,,,,,,,,,,,,,,,,,,,,,,,,,4,,,,,,,,,,,,,,,,,,,,,,,,,,,,,,,,,,,,,,,,,,,,1,,,,,,,,,,,,,,,,,,,,,,,,,,553.0373888999457,None,['4'],0,[1.299203500035219],553.0373888999457,None,553.0373888999457,None,553.0373888999457,None,554.4179555999581,None,554.4179555999581,None,,,,,,,,,,,,,,,P2,001,2019_Nov_12_1616,test_final,3.1.5,60.17383016724645,
,,,,,,,,,,,,,,,,,,,,,,,,,,,,,,,,3,0,3,0,1,0,1,0,,,,,,,,,,,,,,,,,,,,,,,,,,,,,,,,,,,,,,,,,,,,,,,,,,,,,,,,,,,,,,,,,,,,,,,,,,,,,,,,,,,,,,,,,,,,,,,,,,,,,,,,,,,,,,,,,,,555.7677218000172,None,,,,,,,,,,,,,P2,001,2019_Nov_12_1616,test_final,3.1.5,60.17383016724645,
Practice,4,(4x4) - 14,2,,,,,,,,,,,,,,,,,,,,,,,,,,,,,3,0,3,0,2,0,2,0,0,0,0,3,,,,,,,,,,,,,,,,,,,,,,,,,,2,,,,,,,,,,,,,,,,,,,,,,,,,,,,,,,,,,,,,,,,,,,,1,,,,,,,,,,,,,,,,,,,,,,,,,,557.0830122999614,None,['2'],0,[1.554739199928008],557.0830122999614,None,557.0830122999614,None,557.0830122999614,None,558.746582099935,None,558.746582099935,None,,,,,,,,,,,,,,,P2,001,2019_Nov_12_1616,test_final,3.1.5,60.17383016724645,
,,,,,,,,,,,,,,,,,,,,,,,,,,,,,,,,3,0,3,0,2,0,2,0,,,,,,,,,,,,,,,,,,,,,,,,,,,,,,,,,,,,,,,,,,,,,,,,,,,,,,,,,,,,,,,,,,,,,,,,,,,,,,,,,,,,,,,,,,,,,,,,,,,,,,,,,,,,,,,,,,,560.0969131999882,None,,,,,,,,,,,,,P2,001,2019_Nov_12_1616,test_final,3.1.5,60.17383016724645,
Practice,6,(2x6) - 8,4,,,,,,,,,,,,,,,,,,,,,,,,,,,,,3,0,3,0,3,0,3,0,0,0,0,5,,,,,,,,,,,,,,,,,,,,,,,,,,4,,,,,,,,,,,,,,,,,,,,,,,,,,,,,,,,,,,,,,,,,,,,1,,,,,,,,,,,,,,,,,,,,,,,,,,561.4121390000219,None,['4'],0,[1.8327200000640005],561.4121390000219,None,561.4121390000219,None,561.4121390000219,None,563.3253497999394,None,563.3253497999394,None,,,,,,,,,,,,,,,P2,001,2019_Nov_12_1616,test_final,3.1.5,60.17383016724645,
,,,,,,,,,,,,,,,,,,,,,,,,,,,,,,,,3,0,3,0,3,0,3,0,,,,,,,,,,,,,,,,,,,,,,,,,,,,,,,,,,,,,,,,,,,,,,,,,,,,,,,,,,,,,,,,,,,,,,,,,,,,,,,,,,,,,,,,,,,,,,,,,,,,,,,,,,,,,,,,,,,564.6757549999747,None,,,,,,,,,,,,,P2,001,2019_Nov_12_1616,test_final,3.1.5,60.17383016724645,
Practice,10,(8/4) + 3,5,,,,,,,,,,,,,,,,,,,,,,,,,,,,,3,0,3,0,4,0,4,0,0,0,0,9,,,,,,,,,,,,,,,,,,,,,,,,,,5,,,,,,,,,,,,,,,,,,,,,,,,,,,,,,,,,,,,,,,,,,,,1,,,,,,,,,,,,,,,,,,,,,,,,,,565.9912071999861,None,['5'],0,[1.6196351998951286],565.9912071999861,None,565.9912071999861,None,565.9912071999861,None,567.7021559999557,None,567.7021559999557,None,,,,,,,,,,,,,,,P2,001,2019_Nov_12_1616,test_final,3.1.5,60.17383016724645,
,,,,,,,,,,,,,,,,,,,,,,,,,,,,,,,,3,0,3,0,4,0,4,0,,,,,,,,,,,,,,,,,,,,,,,,,,,,,,,,,,,,,,,,,,,,,,,,,,,,,,,,,,,,,,,,,,,,,,,,,,,,,,,,,,,,,,,,,,,,,,,,,,,,,,,,,,,,,,,,,,,569.0544037999352,None,,,,,,,,,,,,,P2,001,2019_Nov_12_1616,test_final,3.1.5,60.17383016724645,
,,,,,,,,,,,,,,,,,,,,,,,,,,,,,,,,3,0,3,0,,,,,,,,,,,,,,,,,,,,,,,,,,,,,,,,,,,,,,,,,,,,,,,,,,,,,,,,,,,,,,,,,,,,,,,,,,,,,,,,,,,,,,,,,,,,,,,,,,,,,,,,,,,,,,,,,,,,,,,,,qhltx,"['q', 'h', 'l', 't', 'x']",0,"[1.9842733999248594, 2.5220606999937445, 2.664100299938582, 2.9236507999012247, 3.142772699939087, 6.324656099895947]",570.3366394999903,None,570.3366394999903,None,1,QHLTX,570.3366394999903,None,P2,001,2019_Nov_12_1616,test_final,3.1.5,60.17383016724645,
Practice,13,(3x8) - 19 ,5,,,,,,,,,,,,,,,,,,,,,,,,,,,,,4,0,4,0,0,0,0,0,0,0,0,12,,,,,,,,,,,,,,,,,,,,,,,,,,5,,,,,,,,,,,,,,,,,,,,,,,,,,,,,,,,,,,,,,,,,,,,1,,,,,,,,,,,,,,,,,,,,,,,,,,577.2469790999312,None,['5'],0,[2.7482460000319406],577.2469790999312,None,577.2469790999312,None,577.2469790999312,None,580.0741454999661,None,580.0741454999661,None,,,,,,,,,,,,,,,P2,001,2019_Nov_12_1616,test_final,3.1.5,60.17383016724645,
,,,,,,,,,,,,,,,,,,,,,,,,,,,,,,,,4,0,4,0,0,0,0,0,,,,,,,,,,,,,,,,,,,,,,,,,,,,,,,,,,,,,,,,,,,,,,,,,,,,,,,,,,,,,,,,,,,,,,,,,,,,,,,,,,,,,,,,,,,,,,,,,,,,,,,,,,,,,,,,,,,581.4259680999676,None,,,,,,,,,,,,,P2,001,2019_Nov_12_1616,test_final,3.1.5,60.17383016724645,
Practice,15,(9/3) - 2,1,,,,,,,,,,,,,,,,,,,,,,,,,,,,,4,0,4,0,1,0,1,0,0,0,0,14,,,,,,,,,,,,,,,,,,,,,,,,,,1,,,,,,,,,,,,,,,,,,,,,,,,,,,,,,,,,,,,,,,,,,,,1,,,,,,,,,,,,,,,,,,,,,,,,,,582.7413112999639,None,['1'],0,[1.2291596999857575],582.7413112999639,None,582.7413112999639,None,582.7413112999639,None,584.0530679000076,None,584.0530679000076,None,,,,,,,,,,,,,,,P2,001,2019_Nov_12_1616,test_final,3.1.5,60.17383016724645,
,,,,,,,,,,,,,,,,,,,,,,,,,,,,,,,,4,0,4,0,1,0,1,0,,,,,,,,,,,,,,,,,,,,,,,,,,,,,,,,,,,,,,,,,,,,,,,,,,,,,,,,,,,,,,,,,,,,,,,,,,,,,,,,,,,,,,,,,,,,,,,,,,,,,,,,,,,,,,,,,,,585.3886399000185,None,,,,,,,,,,,,,P2,001,2019_Nov_12_1616,test_final,3.1.5,60.17383016724645,
Practice,7,(4x6) - 17,7,,,,,,,,,,,,,,,,,,,,,,,,,,,,,4,0,4,0,2,0,2,0,0,0,0,6,,,,,,,,,,,,,,,,,,,,,,,,,,7,,,,,,,,,,,,,,,,,,,,,,,,,,,,,,,,,,,,,,,,,,,,1,,,,,,,,,,,,,,,,,,,,,,,,,,586.7205530999927,None,['7'],0,[2.2858848000178114],586.7205530999927,None,586.7205530999927,None,586.7205530999927,None,589.0987929999828,None,589.0987929999828,None,,,,,,,,,,,,,,,P2,001,2019_Nov_12_1616,test_final,3.1.5,60.17383016724645,
,,,,,,,,,,,,,,,,,,,,,,,,,,,,,,,,4,0,4,0,2,0,2,0,,,,,,,,,,,,,,,,,,,,,,,,,,,,,,,,,,,,,,,,,,,,,,,,,,,,,,,,,,,,,,,,,,,,,,,,,,,,,,,,,,,,,,,,,,,,,,,,,,,,,,,,,,,,,,,,,,,590.4502564999275,None,,,,,,,,,,,,,P2,001,2019_Nov_12_1616,test_final,3.1.5,60.17383016724645,
Practice,8,(3/3) + 5,6,,,,,,,,,,,,,,,,,,,,,,,,,,,,,4,0,4,0,3,0,3,0,0,0,0,7,,,,,,,,,,,,,,,,,,,,,,,,,,6,,,,,,,,,,,,,,,,,,,,,,,,,,,,,,,,,,,,,,,,,,,,1,,,,,,,,,,,,,,,,,,,,,,,,,,591.765653599985,None,['6'],0,[1.6585145000135526],591.765653599985,None,591.765653599985,None,591.765653599985,None,593.5067650999408,None,593.5067650999408,None,,,,,,,,,,,,,,,P2,001,2019_Nov_12_1616,test_final,3.1.5,60.17383016724645,
,,,,,,,,,,,,,,,,,,,,,,,,,,,,,,,,4,0,4,0,3,0,3,0,,,,,,,,,,,,,,,,,,,,,,,,,,,,,,,,,,,,,,,,,,,,,,,,,,,,,,,,,,,,,,,,,,,,,,,,,,,,,,,,,,,,,,,,,,,,,,,,,,,,,,,,,,,,,,,,,,,594.8459925999632,None,,,,,,,,,,,,,P2,001,2019_Nov_12_1616,test_final,3.1.5,60.17383016724645,
Practice,7,(4x6) - 17,7,,,,,,,,,,,,,,,,,,,,,,,,,,,,,4,0,4,0,4,0,4,0,0,0,0,6,,,,,,,,,,,,,,,,,,,,,,,,,,7,,,,,,,,,,,,,,,,,,,,,,,,,,,,,,,,,,,,,,,,,,,,1,,,,,,,,,,,,,,,,,,,,,,,,,,596.1777623000089,None,['7'],0,[2.0678776999702677],596.1777623000089,None,596.1777623000089,None,596.1777623000089,None,598.3412796999328,None,598.3412796999328,None,,,,,,,,,,,,,,,P2,001,2019_Nov_12_1616,test_final,3.1.5,60.17383016724645,
,,,,,,,,,,,,,,,,,,,,,,,,,,,,,,,,4,0,4,0,4,0,4,0,,,,,,,,,,,,,,,,,,,,,,,,,,,,,,,,,,,,,,,,,,,,,,,,,,,,,,,,,,,,,,,,,,,,,,,,,,,,,,,,,,,,,,,,,,,,,,,,,,,,,,,,,,,,,,,,,,,599.6912578999763,None,,,,,,,,,,,,,P2,001,2019_Nov_12_1616,test_final,3.1.5,60.17383016724645,
Practice,9,(4/2) + 5,7,,,,,,,,,,,,,,,,,,,,,,,,,,,,,4,0,4,0,5,0,5,0,0,0,0,8,,,,,,,,,,,,,,,,,,,,,,,,,,7,,,,,,,,,,,,,,,,,,,,,,,,,,,,,,,,,,,,,,,,,,,,1,,,,,,,,,,,,,,,,,,,,,,,,,,601.006884799921,None,['7'],0,[2.714554200065322],601.006884799921,None,601.006884799921,None,601.006884799921,None,603.8087449999293,None,603.8087449999293,None,,,,,,,,,,,,,,,P2,001,2019_Nov_12_1616,test_final,3.1.5,60.17383016724645,
,,,,,,,,,,,,,,,,,,,,,,,,,,,,,,,,4,0,4,0,5,0,5,0,,,,,,,,,,,,,,,,,,,,,,,,,,,,,,,,,,,,,,,,,,,,,,,,,,,,,,,,,,,,,,,,,,,,,,,,,,,,,,,,,,,,,,,,,,,,,,,,,,,,,,,,,,,,,,,,,,,605.1525869999314,None,,,,,,,,,,,,,P2,001,2019_Nov_12_1616,test_final,3.1.5,60.17383016724645,
,,,,,,,,,,,,,,,,,,,,,,,,,,,,,,,,4,0,4,0,,,,,,,,,,,,,,,,,,,,,,,,,,,,,,,,,,,,,,,,,,,,,,,,,,,,,,,,,,,,,,,,,,,,,,,,,,,,,,,,,,,,,,,,,,,,,,,,,,,,,,,,,,,,,,,,,,,,,,,,,qnhjvz,"['q', 'n', 'h', 'j', 'v', 'z']",0,"[1.3027192000299692, 1.8638794999569654, 2.196091099991463, 2.335486999945715, 3.116306299925782, 3.752660600002855, 4.636419199989177]",606.4346225999761,None,606.4346225999761,None,1,QNHJVZ,606.4346225999761,None,P2,001,2019_Nov_12_1616,test_final,3.1.5,60.17383016724645,
Practice,2,(1/1) - 1,0,,,,,,,,,,,,,,,,,,,,,,,,,,,,,5,0,5,0,0,0,0,0,0,0,0,1,,,,,,,,,,,,,,,,,,,,,,,,,,0,,,,,,,,,,,,,,,,,,,,,,,,,,,,,,,,,,,,,,,,,,,,1,,,,,,,,,,,,,,,,,,,,,,,,,,611.6632384000113,None,['0'],0,[1.1573676000116393],611.6632384000113,None,611.6632384000113,None,611.6632384000113,None,612.9061957999365,None,612.9061957999365,None,,,,,,,,,,,,,,,P2,001,2019_Nov_12_1616,test_final,3.1.5,60.17383016724645,
,,,,,,,,,,,,,,,,,,,,,,,,,,,,,,,,5,0,5,0,0,0,0,0,,,,,,,,,,,,,,,,,,,,,,,,,,,,,,,,,,,,,,,,,,,,,,,,,,,,,,,,,,,,,,,,,,,,,,,,,,,,,,,,,,,,,,,,,,,,,,,,,,,,,,,,,,,,,,,,,,,614.2436852999963,None,,,,,,,,,,,,,P2,001,2019_Nov_12_1616,test_final,3.1.5,60.17383016724645,
Practice,2,(1/1) - 1,0,,,,,,,,,,,,,,,,,,,,,,,,,,,,,5,0,5,0,1,0,1,0,0,0,0,1,,,,,,,,,,,,,,,,,,,,,,,,,,0,,,,,,,,,,,,,,,,,,,,,,,,,,,,,,,,,,,,,,,,,,,,1,,,,,,,,,,,,,,,,,,,,,,,,,,615.5759525999893,None,['0'],0,[0.9329358999384567],615.5759525999893,None,615.5759525999893,None,615.5759525999893,None,616.5972486999817,None,616.5972486999817,None,,,,,,,,,,,,,,,P2,001,2019_Nov_12_1616,test_final,3.1.5,60.17383016724645,
,,,,,,,,,,,,,,,,,,,,,,,,,,,,,,,,5,0,5,0,1,0,1,0,,,,,,,,,,,,,,,,,,,,,,,,,,,,,,,,,,,,,,,,,,,,,,,,,,,,,,,,,,,,,,,,,,,,,,,,,,,,,,,,,,,,,,,,,,,,,,,,,,,,,,,,,,,,,,,,,,,617.9566846999805,None,,,,,,,,,,,,,P2,001,2019_Nov_12_1616,test_final,3.1.5,60.17383016724645,
Practice,15,(9/3) - 2,1,,,,,,,,,,,,,,,,,,,,,,,,,,,,,5,0,5,0,2,0,2,0,0,0,0,14,,,,,,,,,,,,,,,,,,,,,,,,,,1,,,,,,,,,,,,,,,,,,,,,,,,,,,,,,,,,,,,,,,,,,,,1,,,,,,,,,,,,,,,,,,,,,,,,,,619.2557035000063,None,['1'],0,[1.575710800010711],619.2557035000063,None,619.2557035000063,None,619.2557035000063,None,620.91667029995,None,620.91667029995,None,,,,,,,,,,,,,,,P2,001,2019_Nov_12_1616,test_final,3.1.5,60.17383016724645,
,,,,,,,,,,,,,,,,,,,,,,,,,,,,,,,,5,0,5,0,2,0,2,0,,,,,,,,,,,,,,,,,,,,,,,,,,,,,,,,,,,,,,,,,,,,,,,,,,,,,,,,,,,,,,,,,,,,,,,,,,,,,,,,,,,,,,,,,,,,,,,,,,,,,,,,,,,,,,,,,,,622.252326900023,None,,,,,,,,,,,,,P2,001,2019_Nov_12_1616,test_final,3.1.5,60.17383016724645,
Practice,9,(4/2) + 5,7,,,,,,,,,,,,,,,,,,,,,,,,,,,,,5,0,5,0,3,0,3,0,0,0,0,8,,,,,,,,,,,,,,,,,,,,,,,,,,7,,,,,,,,,,,,,,,,,,,,,,,,,,,,,,,,,,,,,,,,,,,,1,,,,,,,,,,,,,,,,,,,,,,,,,,623.5680282999529,None,['7'],0,[1.9872836000286043],623.5680282999529,None,623.5680282999529,None,623.5680282999529,None,625.6483925000066,None,625.6483925000066,None,,,,,,,,,,,,,,,P2,001,2019_Nov_12_1616,test_final,3.1.5,60.17383016724645,
,,,,,,,,,,,,,,,,,,,,,,,,,,,,,,,,5,0,5,0,3,0,3,0,,,,,,,,,,,,,,,,,,,,,,,,,,,,,,,,,,,,,,,,,,,,,,,,,,,,,,,,,,,,,,,,,,,,,,,,,,,,,,,,,,,,,,,,,,,,,,,,,,,,,,,,,,,,,,,,,,,626.9811576999491,None,,,,,,,,,,,,,P2,001,2019_Nov_12_1616,test_final,3.1.5,60.17383016724645,
Practice,11,(5x3) - 7,8,,,,,,,,,,,,,,,,,,,,,,,,,,,,,5,0,5,0,4,0,4,0,0,0,0,10,,,,,,,,,,,,,,,,,,,,,,,,,,8,,,,,,,,,,,,,,,,,,,,,,,,,,,,,,,,,,,,,,,,,,,,1,,,,,,,,,,,,,,,,,,,,,,,,,,628.3136135999812,None,['8'],0,[1.1457534999353811],628.3136135999812,None,628.3136135999812,None,628.3136135999812,None,629.5264065000229,None,629.5264065000229,None,,,,,,,,,,,,,,,P2,001,2019_Nov_12_1616,test_final,3.1.5,60.17383016724645,
,,,,,,,,,,,,,,,,,,,,,,,,,,,,,,,,5,0,5,0,4,0,4,0,,,,,,,,,,,,,,,,,,,,,,,,,,,,,,,,,,,,,,,,,,,,,,,,,,,,,,,,,,,,,,,,,,,,,,,,,,,,,,,,,,,,,,,,,,,,,,,,,,,,,,,,,,,,,,,,,,,630.860990999965,None,,,,,,,,,,,,,P2,001,2019_Nov_12_1616,test_final,3.1.5,60.17383016724645,
Practice,2,(1/1) - 1,0,,,,,,,,,,,,,,,,,,,,,,,,,,,,,5,0,5,0,5,0,5,0,0,0,0,1,,,,,,,,,,,,,,,,,,,,,,,,,,0,,,,,,,,,,,,,,,,,,,,,,,,,,,,,,,,,,,,,,,,,,,,1,,,,,,,,,,,,,,,,,,,,,,,,,,632.1762378999265,None,['0'],0,[1.0627283999929205],632.1762378999265,None,632.1762378999265,None,632.1762378999265,None,633.331305300002,None,633.331305300002,None,,,,,,,,,,,,,,,P2,001,2019_Nov_12_1616,test_final,3.1.5,60.17383016724645,
,,,,,,,,,,,,,,,,,,,,,,,,,,,,,,,,5,0,5,0,5,0,5,0,,,,,,,,,,,,,,,,,,,,,,,,,,,,,,,,,,,,,,,,,,,,,,,,,,,,,,,,,,,,,,,,,,,,,,,,,,,,,,,,,,,,,,,,,,,,,,,,,,,,,,,,,,,,,,,,,,,634.6738011999987,None,,,,,,,,,,,,,P2,001,2019_Nov_12_1616,test_final,3.1.5,60.17383016724645,
Practice,2,(1/1) - 1,0,,,,,,,,,,,,,,,,,,,,,,,,,,,,,5,0,5,0,6,0,6,0,0,0,0,1,,,,,,,,,,,,,,,,,,,,,,,,,,0,,,,,,,,,,,,,,,,,,,,,,,,,,,,,,,,,,,,,,,,,,,,1,,,,,,,,,,,,,,,,,,,,,,,,,,635.9725949999411,None,['0'],0,[0.773949799942784],635.9725949999411,None,635.9725949999411,None,635.9725949999411,None,636.8226674000034,None,636.8226674000034,None,,,,,,,,,,,,,,,P2,001,2019_Nov_12_1616,test_final,3.1.5,60.17383016724645,
,,,,,,,,,,,,,,,,,,,,,,,,,,,,,,,,5,0,5,0,6,0,6,0,,,,,,,,,,,,,,,,,,,,,,,,,,,,,,,,,,,,,,,,,,,,,,,,,,,,,,,,,,,,,,,,,,,,,,,,,,,,,,,,,,,,,,,,,,,,,,,,,,,,,,,,,,,,,,,,,,,638.1870554999914,None,,,,,,,,,,,,,P2,001,2019_Nov_12_1616,test_final,3.1.5,60.17383016724645,
,,,,,,,,,,,,,,,,,,,,,,,,,,,,,,,,5,0,5,0,,,,,,,,,,,,,,,,,,,,,,,,,,,,,,,,,,,,,,,,,,,,,,,,,,,,,,,,,,,,,,,,,,,,,,,,,,,,,,,,,,,,,,,,,,,,,,,,,,,,,,,,,,,,,,,,,,,,,,,,,xtjnrqs,"['x', 't', 'j', 'n', 'r', 'q', 's']",0,"[0.8932434000307694, 1.273378000012599, 1.6498247000854462, 1.908288500038907, 2.270868599996902, 2.5409911000169814, 2.7728572000050917, 3.7776057000737637]",639.4522950999672,None,639.4522950999672,None,1,XTJNRQS,639.4522950999672,None,P2,001,2019_Nov_12_1616,test_final,3.1.5,60.17383016724645,
Practice,6,(2x6) - 8,4,,,,,,,,,,,,,,,,,,,,,,,,,,,,,6,0,6,0,0,0,0,0,0,0,0,5,,,,,,,,,,,,,,,,,,,,,,,,,,4,,,,,,,,,,,,,,,,,,,,,,,,,,,,,,,,,,,,,,,,,,,,1,,,,,,,,,,,,,,,,,,,,,,,,,,643.7980533000082,None,['4'],0,[1.5930060000391677],643.7980533000082,None,643.7980533000082,None,643.7980533000082,None,645.4816811999772,None,645.4816811999772,None,,,,,,,,,,,,,,,P2,001,2019_Nov_12_1616,test_final,3.1.5,60.17383016724645,
,,,,,,,,,,,,,,,,,,,,,,,,,,,,,,,,6,0,6,0,0,0,0,0,,,,,,,,,,,,,,,,,,,,,,,,,,,,,,,,,,,,,,,,,,,,,,,,,,,,,,,,,,,,,,,,,,,,,,,,,,,,,,,,,,,,,,,,,,,,,,,,,,,,,,,,,,,,,,,,,,,646.8284112999681,None,,,,,,,,,,,,,P2,001,2019_Nov_12_1616,test_final,3.1.5,60.17383016724645,
Practice,6,(2x6) - 8,4,,,,,,,,,,,,,,,,,,,,,,,,,,,,,6,0,6,0,1,0,1,0,0,0,0,5,,,,,,,,,,,,,,,,,,,,,,,,,,4,,,,,,,,,,,,,,,,,,,,,,,,,,,,,,,,,,,,,,,,,,,,1,,,,,,,,,,,,,,,,,,,,,,,,,,648.1271686999826,None,['4'],0,[0.9271698000375181],648.1271686999826,None,648.1271686999826,None,648.1271686999826,None,649.1295229999814,None,649.1295229999814,None,,,,,,,,,,,,,,,P2,001,2019_Nov_12_1616,test_final,3.1.5,60.17383016724645,
,,,,,,,,,,,,,,,,,,,,,,,,,,,,,,,,6,0,6,0,1,0,1,0,,,,,,,,,,,,,,,,,,,,,,,,,,,,,,,,,,,,,,,,,,,,,,,,,,,,,,,,,,,,,,,,,,,,,,,,,,,,,,,,,,,,,,,,,,,,,,,,,,,,,,,,,,,,,,,,,,,650.4912779999431,None,,,,,,,,,,,,,P2,001,2019_Nov_12_1616,test_final,3.1.5,60.17383016724645,
Practice,13,(3x8) - 19 ,5,,,,,,,,,,,,,,,,,,,,,,,,,,,,,6,0,6,0,2,0,2,0,0,0,0,12,,,,,,,,,,,,,,,,,,,,,,,,,,5,,,,,,,,,,,,,,,,,,,,,,,,,,,,,,,,,,,,,,,,,,,,1,,,,,,,,,,,,,,,,,,,,,,,,,,651.7738437999506,None,['5'],0,[2.097865700023249],651.7738437999506,None,651.7738437999506,None,651.7738437999506,None,653.9414354999317,None,653.9414354999317,None,,,,,,,,,,,,,,,P2,001,2019_Nov_12_1616,test_final,3.1.5,60.17383016724645,
,,,,,,,,,,,,,,,,,,,,,,,,,,,,,,,,6,0,6,0,2,0,2,0,,,,,,,,,,,,,,,,,,,,,,,,,,,,,,,,,,,,,,,,,,,,,,,,,,,,,,,,,,,,,,,,,,,,,,,,,,,,,,,,,,,,,,,,,,,,,,,,,,,,,,,,,,,,,,,,,,,655.2864621999906,None,,,,,,,,,,,,,P2,001,2019_Nov_12_1616,test_final,3.1.5,60.17383016724645,
Practice,6,(2x6) - 8,4,,,,,,,,,,,,,,,,,,,,,,,,,,,,,6,0,6,0,3,0,3,0,0,0,0,5,,,,,,,,,,,,,,,,,,,,,,,,,,4,,,,,,,,,,,,,,,,,,,,,,,,,,,,,,,,,,,,,,,,,,,,1,,,,,,,,,,,,,,,,,,,,,,,,,,656.6355505000101,None,['4'],0,[1.6084005000302568],656.6355505000101,None,656.6355505000101,None,656.6355505000101,None,658.3310389999533,None,658.3310389999533,None,,,,,,,,,,,,,,,P2,001,2019_Nov_12_1616,test_final,3.1.5,60.17383016724645,
,,,,,,,,,,,,,,,,,,,,,,,,,,,,,,,,6,0,6,0,3,0,3,0,,,,,,,,,,,,,,,,,,,,,,,,,,,,,,,,,,,,,,,,,,,,,,,,,,,,,,,,,,,,,,,,,,,,,,,,,,,,,,,,,,,,,,,,,,,,,,,,,,,,,,,,,,,,,,,,,,,659.6821850999258,None,,,,,,,,,,,,,P2,001,2019_Nov_12_1616,test_final,3.1.5,60.17383016724645,
Practice,15,(9/3) - 2,1,,,,,,,,,,,,,,,,,,,,,,,,,,,,,6,0,6,0,4,0,4,0,0,0,0,14,,,,,,,,,,,,,,,,,,,,,,,,,,1,,,,,,,,,,,,,,,,,,,,,,,,,,,,,,,,,,,,,,,,,,,,1,,,,,,,,,,,,,,,,,,,,,,,,,,660.9978356999345,None,['1'],0,[1.371537399943918],660.9978356999345,None,660.9978356999345,None,660.9978356999345,None,662.4632582999766,None,662.4632582999766,None,,,,,,,,,,,,,,,P2,001,2019_Nov_12_1616,test_final,3.1.5,60.17383016724645,
,,,,,,,,,,,,,,,,,,,,,,,,,,,,,,,,6,0,6,0,4,0,4,0,,,,,,,,,,,,,,,,,,,,,,,,,,,,,,,,,,,,,,,,,,,,,,,,,,,,,,,,,,,,,,,,,,,,,,,,,,,,,,,,,,,,,,,,,,,,,,,,,,,,,,,,,,,,,,,,,,,663.8119360000128,None,,,,,,,,,,,,,P2,001,2019_Nov_12_1616,test_final,3.1.5,60.17383016724645,
Practice,2,(1/1) - 1,0,,,,,,,,,,,,,,,,,,,,,,,,,,,,,6,0,6,0,5,0,5,0,0,0,0,1,,,,,,,,,,,,,,,,,,,,,,,,,,0,,,,,,,,,,,,,,,,,,,,,,,,,,,,,,,,,,,,,,,,,,,,1,,,,,,,,,,,,,,,,,,,,,,,,,,665.1273102000123,None,['0'],0,[1.3019823000067845],665.1273102000123,None,665.1273102000123,None,665.1273102000123,None,666.5362600999651,None,666.5362600999651,None,,,,,,,,,,,,,,,P2,001,2019_Nov_12_1616,test_final,3.1.5,60.17383016724645,
,,,,,,,,,,,,,,,,,,,,,,,,,,,,,,,,6,0,6,0,5,0,5,0,,,,,,,,,,,,,,,,,,,,,,,,,,,,,,,,,,,,,,,,,,,,,,,,,,,,,,,,,,,,,,,,,,,,,,,,,,,,,,,,,,,,,,,,,,,,,,,,,,,,,,,,,,,,,,,,,,,667.8907895999728,None,,,,,,,,,,,,,P2,001,2019_Nov_12_1616,test_final,3.1.5,60.17383016724645,
Practice,10,(8/4) + 3,5,,,,,,,,,,,,,,,,,,,,,,,,,,,,,6,0,6,0,6,0,6,0,0,0,0,9,,,,,,,,,,,,,,,,,,,,,,,,,,5,,,,,,,,,,,,,,,,,,,,,,,,,,,,,,,,,,,,,,,,,,,,1,,,,,,,,,,,,,,,,,,,,,,,,,,669.2061629999662,None,['5'],0,[3.4332919999724254],669.2061629999662,None,669.2061629999662,None,669.2061629999662,None,672.7298809000058,None,672.7298809000058,None,,,,,,,,,,,,,,,P2,001,2019_Nov_12_1616,test_final,3.1.5,60.17383016724645,
,,,,,,,,,,,,,,,,,,,,,,,,,,,,,,,,6,0,6,0,6,0,6,0,,,,,,,,,,,,,,,,,,,,,,,,,,,,,,,,,,,,,,,,,,,,,,,,,,,,,,,,,,,,,,,,,,,,,,,,,,,,,,,,,,,,,,,,,,,,,,,,,,,,,,,,,,,,,,,,,,,674.0682223999174,None,,,,,,,,,,,,,P2,001,2019_Nov_12_1616,test_final,3.1.5,60.17383016724645,
Practice,14,(6/3) + 4 ,6,,,,,,,,,,,,,,,,,,,,,,,,,,,,,6,0,6,0,7,0,7,0,0,0,0,13,,,,,,,,,,,,,,,,,,,,,,,,,,2,,,,,,,,,,,,,,,,,,,,,,,,,,,,,,,,,,,,,,,,,,,,0,,,,,,,,,,,,,,,,,,,,,,,,,,675.4000699999742,None,['2'],0,[2.6085289999609813],675.4000699999742,None,675.4000699999742,None,675.4000699999742,None,678.1174914999865,None,678.1174914999865,None,,,,,,,,,,,,,,,P2,001,2019_Nov_12_1616,test_final,3.1.5,60.17383016724645,
Practice,4,(4x4) - 14,2,,,,,,,,,,,,,,,,,,,,,,,,,,,,,6,0,6,0,7,0,7,0,0,1,1,3,,,,,,,,,,,,,,,,,,,,,,,,,,,,,,,,,,,,,,,,,,,,,,,,,,,,,,,,,,,,,,,,,,,,,,0,,,,,,,,,,,,,,,,,,,,,,,,,,679.446530599962,None,None,0,,679.446530599962,None,679.446530599962,None,679.446530599962,None,683.040649099974,None,683.040649099974,None,,,,,,,,,,,,,,,P2,001,2019_Nov_12_1616,test_final,3.1.5,60.17383016724645,
Practice,13,(3x8) - 19 ,5,,,,,,,,,,,,,,,,,,,,,,,,,,,,,6,0,6,0,7,0,7,0,0,2,2,12,,,,,,,,,,,,,,,,,,,,,,,,,,5,,,,,,,,,,,,,,,,,,,,,,,,,,,,,,,,,,,,,,,,,,,,1,,,,,,,,,,,,,,,,,,,,,,,,,,684.3747402000008,None,['5'],0,[1.410712799988687],684.3747402000008,None,684.3747402000008,None,684.3747402000008,None,685.8491514999187,None,685.8491514999187,None,,,,,,,,,,,,,,,P2,001,2019_Nov_12_1616,test_final,3.1.5,60.17383016724645,
,,,,,,,,,,,,,,,,,,,,,,,,,,,,,,,,6,0,6,0,7,0,7,0,,,,,,,,,,,,,,,,,,,,,,,,,,,,,,,,,,,,,,,,,,,,,,,,,,,,,,,,,,,,,,,,,,,,,,,,,,,,,,,,,,,,,,,,,,,,,,,,,,,,,,,,,,,,,,,,,,,687.1718335999176,None,,,,,,,,,,,,,P2,001,2019_Nov_12_1616,test_final,3.1.5,60.17383016724645,
,,,,,,,,,,,,,,,,,,,,,,,,,,,,,,,,6,0,6,0,,,,,,,,,,,,,,,,,,,,,,,,,,,,,,,,,,,,,,,,,,,,,,,,,,,,,,,,,,,,,,,,,,,,,,,,,,,,,,,,,,,,,,,,,,,,,,,,,,,,,,,,,,,,,,,,,,,,,,,,,ljqzskn,"['l', 'j', 'q', 'z', 's', 'k', 'n']",0,"[1.7283523000078276, 2.0604432000545785, 2.851913999998942, 3.2902541999937966, 7.498142400057986, 8.181642700103112, 8.352131300023757, 8.951116700074635]",688.4711847999133,None,688.4711847999133,None,0,LJQZSKXN,688.4711847999133,None,P2,001,2019_Nov_12_1616,test_final,3.1.5,60.17383016724645,
Practice,11,(5x3) - 7,8,,,,,,,,,,,,,,,,,,,,,,,,,,,,,7,0,7,0,0,0,0,0,0,0,0,10,,,,,,,,,,,,,,,,,,,,,,,,,,2,,,,,,,,,,,,,,,,,,,,,,,,,,,,,,,,,,,,,,,,,,,,0,,,,,,,,,,,,,,,,,,,,,,,,,,697.9951945999637,None,['2'],0,[1.7217165000038221],697.9951945999637,None,697.9951945999637,None,697.9951945999637,None,699.8371190999169,None,699.8371190999169,None,,,,,,,,,,,,,,,P2,001,2019_Nov_12_1616,test_final,3.1.5,60.17383016724645,
Practice,14,(6/3) + 4 ,6,,,,,,,,,,,,,,,,,,,,,,,,,,,,,7,0,7,0,0,0,0,0,0,1,1,13,,,,,,,,,,,,,,,,,,,,,,,,,,6,,,,,,,,,,,,,,,,,,,,,,,,,,,,,,,,,,,,,,,,,,,,1,,,,,,,,,,,,,,,,,,,,,,,,,,701.1751761999913,None,['6'],0,[2.5770284000318497],701.1751761999913,None,701.1751761999913,None,701.1751761999913,None,703.8162375999382,None,703.8162375999382,None,,,,,,,,,,,,,,,P2,001,2019_Nov_12_1616,test_final,3.1.5,60.17383016724645,
,,,,,,,,,,,,,,,,,,,,,,,,,,,,,,,,7,0,7,0,0,0,0,0,,,,,,,,,,,,,,,,,,,,,,,,,,,,,,,,,,,,,,,,,,,,,,,,,,,,,,,,,,,,,,,,,,,,,,,,,,,,,,,,,,,,,,,,,,,,,,,,,,,,,,,,,,,,,,,,,,,705.1212157999398,None,,,,,,,,,,,,,P2,001,2019_Nov_12_1616,test_final,3.1.5,60.17383016724645,
Practice,10,(8/4) + 3,5,,,,,,,,,,,,,,,,,,,,,,,,,,,,,7,0,7,0,1,0,1,0,0,0,0,9,,,,,,,,,,,,,,,,,,,,,,,,,,5,,,,,,,,,,,,,,,,,,,,,,,,,,,,,,,,,,,,,,,,,,,,1,,,,,,,,,,,,,,,,,,,,,,,,,,706.4365402000258,None,['5'],0,[1.3127093999646604],706.4365402000258,None,706.4365402000258,None,706.4365402000258,None,707.8430611999938,None,707.8430611999938,None,,,,,,,,,,,,,,,P2,001,2019_Nov_12_1616,test_final,3.1.5,60.17383016724645,
,,,,,,,,,,,,,,,,,,,,,,,,,,,,,,,,7,0,7,0,1,0,1,0,,,,,,,,,,,,,,,,,,,,,,,,,,,,,,,,,,,,,,,,,,,,,,,,,,,,,,,,,,,,,,,,,,,,,,,,,,,,,,,,,,,,,,,,,,,,,,,,,,,,,,,,,,,,,,,,,,,709.183883599937,None,,,,,,,,,,,,,P2,001,2019_Nov_12_1616,test_final,3.1.5,60.17383016724645,
Practice,2,(1/1) - 1,0,,,,,,,,,,,,,,,,,,,,,,,,,,,,,7,0,7,0,2,0,2,0,0,0,0,1,,,,,,,,,,,,,,,,,,,,,,,,,,0,,,,,,,,,,,,,,,,,,,,,,,,,,,,,,,,,,,,,,,,,,,,1,,,,,,,,,,,,,,,,,,,,,,,,,,710.4994315999793,None,['0'],0,[1.1906506000086665],710.4994315999793,None,710.4994315999793,None,710.4994315999793,None,711.8093476999784,None,711.8093476999784,None,,,,,,,,,,,,,,,P2,001,2019_Nov_12_1616,test_final,3.1.5,60.17383016724645,
,,,,,,,,,,,,,,,,,,,,,,,,,,,,,,,,7,0,7,0,2,0,2,0,,,,,,,,,,,,,,,,,,,,,,,,,,,,,,,,,,,,,,,,,,,,,,,,,,,,,,,,,,,,,,,,,,,,,,,,,,,,,,,,,,,,,,,,,,,,,,,,,,,,,,,,,,,,,,,,,,,713.146781199961,None,,,,,,,,,,,,,P2,001,2019_Nov_12_1616,test_final,3.1.5,60.17383016724645,
Practice,6,(2x6) - 8,4,,,,,,,,,,,,,,,,,,,,,,,,,,,,,7,0,7,0,3,0,3,0,0,0,0,5,,,,,,,,,,,,,,,,,,,,,,,,,,4,,,,,,,,,,,,,,,,,,,,,,,,,,,,,,,,,,,,,,,,,,,,1,,,,,,,,,,,,,,,,,,,,,,,,,,714.4620783999562,None,['4'],0,[1.2950936999404803],714.4620783999562,None,714.4620783999562,None,714.4620783999562,None,715.8365320999874,None,715.8365320999874,None,,,,,,,,,,,,,,,P2,001,2019_Nov_12_1616,test_final,3.1.5,60.17383016724645,
,,,,,,,,,,,,,,,,,,,,,,,,,,,,,,,,7,0,7,0,3,0,3,0,,,,,,,,,,,,,,,,,,,,,,,,,,,,,,,,,,,,,,,,,,,,,,,,,,,,,,,,,,,,,,,,,,,,,,,,,,,,,,,,,,,,,,,,,,,,,,,,,,,,,,,,,,,,,,,,,,,717.1762634000042,None,,,,,,,,,,,,,P2,001,2019_Nov_12_1616,test_final,3.1.5,60.17383016724645,
Practice,1,(1x2) + 1,3,,,,,,,,,,,,,,,,,,,,,,,,,,,,,7,0,7,0,4,0,4,0,0,0,0,0,,,,,,,,,,,,,,,,,,,,,,,,,,3,,,,,,,,,,,,,,,,,,,,,,,,,,,,,,,,,,,,,,,,,,,,1,,,,,,,,,,,,,,,,,,,,,,,,,,718.4912829999812,None,['3'],0,[1.590807699947618],718.4912829999812,None,718.4912829999812,None,718.4912829999812,None,720.1794377999613,None,720.1794377999613,None,,,,,,,,,,,,,,,P2,001,2019_Nov_12_1616,test_final,3.1.5,60.17383016724645,
,,,,,,,,,,,,,,,,,,,,,,,,,,,,,,,,7,0,7,0,4,0,4,0,,,,,,,,,,,,,,,,,,,,,,,,,,,,,,,,,,,,,,,,,,,,,,,,,,,,,,,,,,,,,,,,,,,,,,,,,,,,,,,,,,,,,,,,,,,,,,,,,,,,,,,,,,,,,,,,,,,721.5219136999222,None,,,,,,,,,,,,,P2,001,2019_Nov_12_1616,test_final,3.1.5,60.17383016724645,
Practice,6,(2x6) - 8,4,,,,,,,,,,,,,,,,,,,,,,,,,,,,,7,0,7,0,5,0,5,0,0,0,0,5,,,,,,,,,,,,,,,,,,,,,,,,,,4,,,,,,,,,,,,,,,,,,,,,,,,,,,,,,,,,,,,,,,,,,,,1,,,,,,,,,,,,,,,,,,,,,,,,,,722.8373492999235,None,['4'],0,[1.6038381000980735],722.8373492999235,None,722.8373492999235,None,722.8373492999235,None,724.5305671999231,None,724.5305671999231,None,,,,,,,,,,,,,,,P2,001,2019_Nov_12_1616,test_final,3.1.5,60.17383016724645,
,,,,,,,,,,,,,,,,,,,,,,,,,,,,,,,,7,0,7,0,5,0,5,0,,,,,,,,,,,,,,,,,,,,,,,,,,,,,,,,,,,,,,,,,,,,,,,,,,,,,,,,,,,,,,,,,,,,,,,,,,,,,,,,,,,,,,,,,,,,,,,,,,,,,,,,,,,,,,,,,,,725.8675276000286,None,,,,,,,,,,,,,P2,001,2019_Nov_12_1616,test_final,3.1.5,60.17383016724645,
Practice,14,(6/3) + 4 ,6,,,,,,,,,,,,,,,,,,,,,,,,,,,,,7,0,7,0,6,0,6,0,0,0,0,13,,,,,,,,,,,,,,,,,,,,,,,,,,6,,,,,,,,,,,,,,,,,,,,,,,,,,,,,,,,,,,,,,,,,,,,1,,,,,,,,,,,,,,,,,,,,,,,,,,727.1830127999419,None,['6'],0,[1.6016365999821573],727.1830127999419,None,727.1830127999419,None,727.1830127999419,None,728.8874986999435,None,728.8874986999435,None,,,,,,,,,,,,,,,P2,001,2019_Nov_12_1616,test_final,3.1.5,60.17383016724645,
,,,,,,,,,,,,,,,,,,,,,,,,,,,,,,,,7,0,7,0,6,0,6,0,,,,,,,,,,,,,,,,,,,,,,,,,,,,,,,,,,,,,,,,,,,,,,,,,,,,,,,,,,,,,,,,,,,,,,,,,,,,,,,,,,,,,,,,,,,,,,,,,,,,,,,,,,,,,,,,,,,730.213433100027,None,,,,,,,,,,,,,P2,001,2019_Nov_12_1616,test_final,3.1.5,60.17383016724645,
Practice,15,(9/3) - 2,1,,,,,,,,,,,,,,,,,,,,,,,,,,,,,7,0,7,0,7,0,7,0,0,0,0,14,,,,,,,,,,,,,,,,,,,,,,,,,,3,,,,,,,,,,,,,,,,,,,,,,,,,,,,,,,,,,,,,,,,,,,,0,,,,,,,,,,,,,,,,,,,,,,,,,,731.5283945000265,None,['3'],0,[1.2164182000560686],731.5283945000265,None,731.5283945000265,None,731.5283945000265,None,732.8234211999224,None,732.8234211999224,None,,,,,,,,,,,,,,,P2,001,2019_Nov_12_1616,test_final,3.1.5,60.17383016724645,
Practice,9,(4/2) + 5,7,,,,,,,,,,,,,,,,,,,,,,,,,,,,,7,0,7,0,7,0,7,0,0,1,1,8,,,,,,,,,,,,,,,,,,,,,,,,,,7,,,,,,,,,,,,,,,,,,,,,,,,,,,,,,,,,,,,,,,,,,,,1,,,,,,,,,,,,,,,,,,,,,,,,,,734.1593520999886,None,['7'],0,[1.8223939000163227],734.1593520999886,None,734.1593520999886,None,734.1593520999886,None,736.053612699965,None,736.053612699965,None,,,,,,,,,,,,,,,P2,001,2019_Nov_12_1616,test_final,3.1.5,60.17383016724645,
,,,,,,,,,,,,,,,,,,,,,,,,,,,,,,,,7,0,7,0,7,0,7,0,,,,,,,,,,,,,,,,,,,,,,,,,,,,,,,,,,,,,,,,,,,,,,,,,,,,,,,,,,,,,,,,,,,,,,,,,,,,,,,,,,,,,,,,,,,,,,,,,,,,,,,,,,,,,,,,,,,737.3728546999628,None,,,,,,,,,,,,,P2,001,2019_Nov_12_1616,test_final,3.1.5,60.17383016724645,
,,,,,,,,,,,,,,,,,,,,,,,,,,,,,,,,7,0,7,0,,,,,,,,,,,,,,,,,,,,,,,,,,,,,,,,,,,,,,,,,,,,,,,,,,,,,,,,,,,,,,,,,,,,,,,,,,,,,,,,,,,,,,,,,,,,,,,,,,,,,,,,,,,,,,,,,,,,,,,,,txqnzrs,"['t', 'x', 'q', 'n', 'z', 'r', 's']",0,"[1.6013848999282345, 2.0046060999156907, 2.3166445000097156, 2.8654786999104545, 3.3171068999217823, 3.783739299979061, 4.881618099985644, 5.29499520000536, 5.884004899999127, 7.106562400003895]",738.6717988000019,None,738.6717988000019,None,0,TXQNZRSV,738.6717988000019,None,P2,001,2019_Nov_12_1616,test_final,3.1.5,60.17383016724645,
