Task,Trial,Problem,Operation_answer,next_level.thisRepN,next_level.thisTrialN,next_level.thisN,next_level.thisIndex,next_letter.thisRepN,next_letter.thisTrialN,next_letter.thisN,next_letter.thisIndex,repeat_practice.thisRepN,repeat_practice.thisTrialN,repeat_practice.thisN,repeat_practice.thisIndex,trials.thisRepN,trials.thisTrialN,trials.thisN,trials.thisIndex,span_recall_prac.thisRepN,span_recall_prac.thisTrialN,span_recall_prac.thisN,span_recall_prac.thisIndex,span_size_prac.thisRepN,span_size_prac.thisTrialN,span_size_prac.thisN,span_size_prac.thisIndex,repeat_if_wrong_prac.thisRepN,repeat_if_wrong_prac.thisTrialN,repeat_if_wrong_prac.thisN,repeat_if_wrong_prac.thisIndex,span_recall.thisRepN,span_recall.thisTrialN,span_recall.thisN,span_recall.thisIndex,span_size.thisRepN,span_size.thisTrialN,span_size.thisN,span_size.thisIndex,repeat_if_wrong.thisRepN,repeat_if_wrong.thisTrialN,repeat_if_wrong.thisN,repeat_if_wrong.thisIndex,instructions_2.started,instructions_2.stopped,key_resp_4.keys,key_resp_4.rt,key_resp_4.started,key_resp_4.stopped,text_2.started,text_2.stopped,simple_recall,key_resp_5.keys,key_resp_5.rt,key_resp_5.started,key_resp_5.stopped,text_feedback.started,text_feedback.stopped,simple_recall_corr,simple_recall_corrkeys,instructions_3.started,instructions_3.stopped,instructions.started,instructions.stopped,key_resp_2.keys,key_resp_2.rt,key_resp_2.started,key_resp_2.stopped,digit_answer,operation.started,operation.stopped,key_resp.keys,key_resp.corr,key_resp.rt,key_resp.started,key_resp.stopped,operation_feedback.started,operation_feedback.stopped,RT_list,instructions_8.started,instructions_8.stopped,feedback_msg.started,feedback_msg.stopped,processing_score,sumRT,meanRT,sumdiff,sd,RT,feedback_msg_2.started,feedback_msg_2.stopped,key_resp_3.keys,key_resp_3.rt,key_resp_3.started,key_resp_3.stopped,instructions_4.started,instructions_4.stopped,key_resp_6.keys,key_resp_6.rt,key_resp_6.started,key_resp_6.stopped,operation_3.started,operation_3.stopped,key_resp_11.keys,key_resp_11.corr,key_resp_11.rt,key_resp_11.started,key_resp_11.stopped,operation_feedback_2.started,operation_feedback_2.stopped,instructions_9.started,instructions_9.stopped,operation_correct,feedback_msg_4.started,feedback_msg_4.stopped,operation_4.started,operation_4.stopped,text_3.started,text_3.stopped,complex_recall_prac,key_resp_9.keys,key_resp_9.corr,key_resp_9.rt,key_resp_9.started,key_resp_9.stopped,text_feedback_3.started,text_feedback_3.stopped,instructions_6.started,instructions_6.stopped,complex_prac_corr,feedback_msg_3.started,feedback_msg_3.stopped,instructions_7.started,instructions_7.stopped,key_resp_10.keys,key_resp_10.rt,key_resp_10.started,key_resp_10.stopped,operation_2.started,operation_2.stopped,key_resp_7.keys,key_resp_7.corr,key_resp_7.rt,key_resp_7.started,key_resp_7.stopped,operation_feedback_3.started,operation_feedback_3.stopped,instructions_10.started,instructions_10.stopped,feedback_msg_5.started,feedback_msg_5.stopped,operation_5.started,operation_5.stopped,text.started,text.stopped,complex_recall,key_resp_8.keys,key_resp_8.corr,key_resp_8.rt,key_resp_8.started,key_resp_8.stopped,text_feedback_2.started,text_feedback_2.stopped,complex_recall_corr,complex_recall_corrkeys,instructions_5.started,instructions_5.stopped,finish.started,finish.stopped,key_resp_12.keys,key_resp_12.rt,key_resp_12.started,key_resp_12.stopped,participant,session,date,expName,psychopyVersion,frameRate,
,,,,,,,,,,,,,,,,,,,,,,,,,,,,,,,,,,,,,,,,,,,,28.081614561844617,None,space,8.633078979328275,28.081614561844617,None,,,,,,,,,,,,,,,,,,,,,,,,,,,,,,,,,,,,,,,,,,,,,,,,,,,,,,,,,,,,,,,,,,,,,,,,,,,,,,,,,,,,,,,,,,,,,,,,,,,,,,,,,,,,,,,,,,,,,,,,,,,,,Pilot4,001,2019_Nov_19_1109,test_final,3.2.4,59.98320608272943,
,,,,0,0,0,0,0,0,0,0,,,,,,,,,,,,,,,,,,,,,,,,,,,,,,,,,,,,,,,37.26294420892373,None,,,,,,,,,,,,,,,,,,,,,,,,,,,,,,,,,,,,,,,,,,,,,,,,,,,,,,,,,,,,,,,,,,,,,,,,,,,,,,,,,,,,,,,,,,,,,,,,,,,,,,,,,,,,,,,,,,,,,,,,,,,Pilot4,001,2019_Nov_19_1109,test_final,3.2.4,59.98320608272943,
,,,,0,0,0,0,1,0,1,0,,,,,,,,,,,,,,,,,,,,,,,,,,,,,,,,,,,,,,,38.55961057031527,None,,,,,,,,,,,,,,,,,,,,,,,,,,,,,,,,,,,,,,,,,,,,,,,,,,,,,,,,,,,,,,,,,,,,,,,,,,,,,,,,,,,,,,,,,,,,,,,,,,,,,,,,,,,,,,,,,,,,,,,,,,,Pilot4,001,2019_Nov_19_1109,test_final,3.2.4,59.98320608272943,
,,,,1,0,1,0,0,0,0,0,,,,,,,,,,,,,,,,,,,,,,,,,,,,,,,,,,,,,,,43.48741757590324,None,vs,"['v', 's']","[1.8156142234802246, 2.210160299669951, 3.0862327837385237]",39.8594483663328,None,39.8594483663328,None,1,VS,39.8594483663328,None,,,,,,,,,,,,,,,,,,,,,,,,,,,,,,,,,,,,,,,,,,,,,,,,,,,,,,,,,,,,,,,,,,,,,,,,,,,,,,,,,,,,,,,,,,,,,,,,,,,,,,,,,,,,,,,,Pilot4,001,2019_Nov_19_1109,test_final,3.2.4,59.98320608272943,
,,,,1,0,1,0,1,0,1,0,,,,,,,,,,,,,,,,,,,,,,,,,,,,,,,,,,,,,,,44.770267001353204,44.28715734463185,,,,,,,,,,,,,,,,,,,,,,,,,,,,,,,,,,,,,,,,,,,,,,,,,,,,,,,,,,,,,,,,,,,,,,,,,,,,,,,,,,,,,,,,,,,,,,,,,,,,,,,,,,,,,,,,,,,,,,,,,,,Pilot4,001,2019_Nov_19_1109,test_final,3.2.4,59.98320608272943,
,,,,2,0,2,0,0,0,0,0,,,,,,,,,,,,,,,,,,,,,,,,,,,,,,,,,,,,,,,49.1820722585544,None,st,"['s', 't']","[1.4545889548026025, 1.7255791733041406, 2.592618673108518]",46.051935866009444,None,46.051935866009444,None,1,ST,46.051935866009444,None,,,,,,,,,,,,,,,,,,,,,,,,,,,,,,,,,,,,,,,,,,,,,,,,,,,,,,,,,,,,,,,,,,,,,,,,,,,,,,,,,,,,,,,,,,,,,,,,,,,,,,,,,,,,,,,,Pilot4,001,2019_Nov_19_1109,test_final,3.2.4,59.98320608272943,
,,,,2,0,2,0,1,0,1,0,,,,,,,,,,,,,,,,,,,,,,,,,,,,,,,,,,,,,,,50.48038957128301,49.98746200557798,,,,,,,,,,,,,,,,,,,,,,,,,,,,,,,,,,,,,,,,,,,,,,,,,,,,,,,,,,,,,,,,,,,,,,,,,,,,,,,,,,,,,,,,,,,,,,,,,,,,,,,,,,,,,,,,,,,,,,,,,,,Pilot4,001,2019_Nov_19_1109,test_final,3.2.4,59.98320608272943,
,,,,2,0,2,0,2,0,2,0,,,,,,,,,,,,,,,,,,,,,,,,,,,,,,,,,,,,,,,51.779100756626576,51.285805764608085,,,,,,,,,,,,,,,,,,,,,,,,,,,,,,,,,,,,,,,,,,,,,,,,,,,,,,,,,,,,,,,,,,,,,,,,,,,,,,,,,,,,,,,,,,,,,,,,,,,,,,,,,,,,,,,,,,,,,,,,,,,Pilot4,001,2019_Nov_19_1109,test_final,3.2.4,59.98320608272943,
,,,,3,0,3,0,0,0,0,0,,,,,,,,,,,,,,,,,,,,,,,,,,,,,,,,,,,,,,,56.407833381555974,None,zrx,"['z', 'r', 'x']","[1.337103041820228, 1.7521530780941248, 2.0589733915403485, 2.816449219826609]",53.061757653485984,None,53.061757653485984,None,1,ZRX,53.061757653485984,None,,,,,,,,,,,,,,,,,,,,,,,,,,,,,,,,,,,,,,,,,,,,,,,,,,,,,,,,,,,,,,,,,,,,,,,,,,,,,,,,,,,,,,,,,,,,,,,,,,,,,,,,,,,,,,,,Pilot4,001,2019_Nov_19_1109,test_final,3.2.4,59.98320608272943,
,,,,3,0,3,0,1,0,1,0,,,,,,,,,,,,,,,,,,,,,,,,,,,,,,,,,,,,,,,57.723173974081874,57.22384429862723,,,,,,,,,,,,,,,,,,,,,,,,,,,,,,,,,,,,,,,,,,,,,,,,,,,,,,,,,,,,,,,,,,,,,,,,,,,,,,,,,,,,,,,,,,,,,,,,,,,,,,,,,,,,,,,,,,,,,,,,,,,Pilot4,001,2019_Nov_19_1109,test_final,3.2.4,59.98320608272943,
,,,,3,0,3,0,2,0,2,0,,,,,,,,,,,,,,,,,,,,,,,,,,,,,,,,,,,,,,,59.03790736058727,None,,,,,,,,,,,,,,,,,,,,,,,,,,,,,,,,,,,,,,,,,,,,,,,,,,,,,,,,,,,,,,,,,,,,,,,,,,,,,,,,,,,,,,,,,,,,,,,,,,,,,,,,,,,,,,,,,,,,,,,,,,,Pilot4,001,2019_Nov_19_1109,test_final,3.2.4,59.98320608272943,
,,,,4,0,4,0,0,0,0,0,,,,,,,,,,,,,,,,,,,,,,,,,,,,,,,,,,,,,,,64.36590301664546,None,tkj,"['t', 'k', 'j']","[1.8209020644426346, 2.545537634752691, 2.801886852364987, 3.5035198205150664]",60.32033964060247,None,60.32033964060247,None,1,TKJ,60.32033964060247,None,,,,,,,,,,,,,,,,,,,,,,,,,,,,,,,,,,,,,,,,,,,,,,,,,,,,,,,,,,,,,,,,,,,,,,,,,,,,,,,,,,,,,,,,,,,,,,,,,,,,,,,,,,,,,,,,Pilot4,001,2019_Nov_19_1109,test_final,3.2.4,59.98320608272943,
,,,,4,0,4,0,1,0,1,0,,,,,,,,,,,,,,,,,,,,,,,,,,,,,,,,,,,,,,,65.66409867629409,None,,,,,,,,,,,,,,,,,,,,,,,,,,,,,,,,,,,,,,,,,,,,,,,,,,,,,,,,,,,,,,,,,,,,,,,,,,,,,,,,,,,,,,,,,,,,,,,,,,,,,,,,,,,,,,,,,,,,,,,,,,,Pilot4,001,2019_Nov_19_1109,test_final,3.2.4,59.98320608272943,
,,,,4,0,4,0,2,0,2,0,,,,,,,,,,,,,,,,,,,,,,,,,,,,,,,,,,,,,,,66.96216774685308,66.46323159197345,,,,,,,,,,,,,,,,,,,,,,,,,,,,,,,,,,,,,,,,,,,,,,,,,,,,,,,,,,,,,,,,,,,,,,,,,,,,,,,,,,,,,,,,,,,,,,,,,,,,,,,,,,,,,,,,,,,,,,,,,,,Pilot4,001,2019_Nov_19_1109,test_final,3.2.4,59.98320608272943,
,,,,4,0,4,0,3,0,3,0,,,,,,,,,,,,,,,,,,,,,,,,,,,,,,,,,,,,,,,68.24501576228067,67.76142372563481,,,,,,,,,,,,,,,,,,,,,,,,,,,,,,,,,,,,,,,,,,,,,,,,,,,,,,,,,,,,,,,,,,,,,,,,,,,,,,,,,,,,,,,,,,,,,,,,,,,,,,,,,,,,,,,,,,,,,,,,,,,Pilot4,001,2019_Nov_19_1109,test_final,3.2.4,59.98320608272943,
,,,,5,0,5,0,0,0,0,0,,,,,,,,,,,,,,,,,,,,,,,,,,,,,,,,,,,,,,,73.20557064004242,None,lvtz,"['l', 'v', 't', 'z']","[1.2002690467052162, 1.7398894196376204, 2.0634290571324527, 2.3266306766308844, 3.127094367519021]",69.54296176927164,None,69.54296176927164,None,1,LVTZ,69.54296176927164,None,,,,,,,,,,,,,,,,,,,,,,,,,,,,,,,,,,,,,,,,,,,,,,,,,,,,,,,,,,,,,,,,,,,,,,,,,,,,,,,,,,,,,,,,,,,,,,,,,,,,,,,,,,,,,,,,Pilot4,001,2019_Nov_19_1109,test_final,3.2.4,59.98320608272943,
,,,,5,0,5,0,1,0,1,0,,,,,,,,,,,,,,,,,,,,,,,,,,,,,,,,,,,,,,,74.50366474641487,74.00473740650341,,,,,,,,,,,,,,,,,,,,,,,,,,,,,,,,,,,,,,,,,,,,,,,,,,,,,,,,,,,,,,,,,,,,,,,,,,,,,,,,,,,,,,,,,,,,,,,,,,,,,,,,,,,,,,,,,,,,,,,,,,,Pilot4,001,2019_Nov_19_1109,test_final,3.2.4,59.98320608272943,
,,,,5,0,5,0,2,0,2,0,,,,,,,,,,,,,,,,,,,,,,,,,,,,,,,,,,,,,,,75.80328109906986,75.30747723858804,,,,,,,,,,,,,,,,,,,,,,,,,,,,,,,,,,,,,,,,,,,,,,,,,,,,,,,,,,,,,,,,,,,,,,,,,,,,,,,,,,,,,,,,,,,,,,,,,,,,,,,,,,,,,,,,,,,,,,,,,,,Pilot4,001,2019_Nov_19_1109,test_final,3.2.4,59.98320608272943,
,,,,5,0,5,0,3,0,3,0,,,,,,,,,,,,,,,,,,,,,,,,,,,,,,,,,,,,,,,77.10131737636402,None,,,,,,,,,,,,,,,,,,,,,,,,,,,,,,,,,,,,,,,,,,,,,,,,,,,,,,,,,,,,,,,,,,,,,,,,,,,,,,,,,,,,,,,,,,,,,,,,,,,,,,,,,,,,,,,,,,,,,,,,,,,Pilot4,001,2019_Nov_19_1109,test_final,3.2.4,59.98320608272943,
,,,,6,0,6,0,0,0,0,0,,,,,,,,,,,,,,,,,,,,,,,,,,,,,,,,,,,,,,,82.07936804043129,None,tsnv,"['t', 's', 'n', 'v']","[1.3481279574334621, 1.6818303628824651, 2.0506957126781344, 2.4167923158966005, 3.159214581362903]",78.38390551274642,None,78.38390551274642,None,1,TSNV,78.38390551274642,None,,,,,,,,,,,,,,,,,,,,,,,,,,,,,,,,,,,,,,,,,,,,,,,,,,,,,,,,,,,,,,,,,,,,,,,,,,,,,,,,,,,,,,,,,,,,,,,,,,,,,,,,,,,,,,,,Pilot4,001,2019_Nov_19_1109,test_final,3.2.4,59.98320608272943,
,,,,6,0,6,0,1,0,1,0,,,,,,,,,,,,,,,,,,,,,,,,,,,,,,,,,,,,,,,83.37817972199991,82.8775919098407,,,,,,,,,,,,,,,,,,,,,,,,,,,,,,,,,,,,,,,,,,,,,,,,,,,,,,,,,,,,,,,,,,,,,,,,,,,,,,,,,,,,,,,,,,,,,,,,,,,,,,,,,,,,,,,,,,,,,,,,,,,Pilot4,001,2019_Nov_19_1109,test_final,3.2.4,59.98320608272943,
,,,,6,0,6,0,2,0,2,0,,,,,,,,,,,,,,,,,,,,,,,,,,,,,,,,,,,,,,,84.69299138942733,None,,,,,,,,,,,,,,,,,,,,,,,,,,,,,,,,,,,,,,,,,,,,,,,,,,,,,,,,,,,,,,,,,,,,,,,,,,,,,,,,,,,,,,,,,,,,,,,,,,,,,,,,,,,,,,,,,,,,,,,,,,,Pilot4,001,2019_Nov_19_1109,test_final,3.2.4,59.98320608272943,
,,,,6,0,6,0,3,0,3,0,,,,,,,,,,,,,,,,,,,,,,,,,,,,,,,,,,,,,,,85.99171914812177,None,,,,,,,,,,,,,,,,,,,,,,,,,,,,,,,,,,,,,,,,,,,,,,,,,,,,,,,,,,,,,,,,,,,,,,,,,,,,,,,,,,,,,,,,,,,,,,,,,,,,,,,,,,,,,,,,,,,,,,,,,,,Pilot4,001,2019_Nov_19_1109,test_final,3.2.4,59.98320608272943,
,,,,6,0,6,0,4,0,4,0,,,,,,,,,,,,,,,,,,,,,,,,,,,,,,,,,,,,,,,87.27361227665097,None,,,,,,,,,,,,,,,,,,,,,,,,,,,,,,,,,,,,,,,,,,,,,,,,,,,,,,,,,,,,,,,,,,,,,,,,,,,,,,,,,,,,,,,,,,,,,,,,,,,,,,,,,,,,,,,,,,,,,,,,,,,Pilot4,001,2019_Nov_19_1109,test_final,3.2.4,59.98320608272943,
,,,,7,0,7,0,0,0,0,0,,,,,,,,,,,,,,,,,,,,,,,,,,,,,,,,,,,,,,,92.86781807802618,None,qnhxl,"['q', 'n', 'h', 'x', 'l']","[1.4479019306600094, 1.7070629140362144, 2.252104769926518, 2.6467668572440743, 2.996070086490363, 3.780928722117096]",88.55606747698039,None,88.55606747698039,None,1,QNHXL,88.55606747698039,None,,,,,,,,,,,,,,,,,,,,,,,,,,,,,,,,,,,,,,,,,,,,,,,,,,,,,,,,,,,,,,,,,,,,,,,,,,,,,,,,,,,,,,,,,,,,,,,,,,,,,,,,,,,,,,,,Pilot4,001,2019_Nov_19_1109,test_final,3.2.4,59.98320608272943,
,,,,7,0,7,0,1,0,1,0,,,,,,,,,,,,,,,,,,,,,,,,,,,,,,,,,,,,,,,94.16610294999555,93.6828804560937,,,,,,,,,,,,,,,,,,,,,,,,,,,,,,,,,,,,,,,,,,,,,,,,,,,,,,,,,,,,,,,,,,,,,,,,,,,,,,,,,,,,,,,,,,,,,,,,,,,,,,,,,,,,,,,,,,,,,,,,,,,Pilot4,001,2019_Nov_19_1109,test_final,3.2.4,59.98320608272943,
,,,,7,0,7,0,2,0,2,0,,,,,,,,,,,,,,,,,,,,,,,,,,,,,,,,,,,,,,,95.46518050460145,94.98154051229358,,,,,,,,,,,,,,,,,,,,,,,,,,,,,,,,,,,,,,,,,,,,,,,,,,,,,,,,,,,,,,,,,,,,,,,,,,,,,,,,,,,,,,,,,,,,,,,,,,,,,,,,,,,,,,,,,,,,,,,,,,,Pilot4,001,2019_Nov_19_1109,test_final,3.2.4,59.98320608272943,
,,,,7,0,7,0,3,0,3,0,,,,,,,,,,,,,,,,,,,,,,,,,,,,,,,,,,,,,,,96.7633486604318,96.28005000110716,,,,,,,,,,,,,,,,,,,,,,,,,,,,,,,,,,,,,,,,,,,,,,,,,,,,,,,,,,,,,,,,,,,,,,,,,,,,,,,,,,,,,,,,,,,,,,,,,,,,,,,,,,,,,,,,,,,,,,,,,,,Pilot4,001,2019_Nov_19_1109,test_final,3.2.4,59.98320608272943,
,,,,7,0,7,0,4,0,4,0,,,,,,,,,,,,,,,,,,,,,,,,,,,,,,,,,,,,,,,98.06142125744373,97.57867620605975,,,,,,,,,,,,,,,,,,,,,,,,,,,,,,,,,,,,,,,,,,,,,,,,,,,,,,,,,,,,,,,,,,,,,,,,,,,,,,,,,,,,,,,,,,,,,,,,,,,,,,,,,,,,,,,,,,,,,,,,,,,Pilot4,001,2019_Nov_19_1109,test_final,3.2.4,59.98320608272943,
,,,,8,0,8,0,0,0,0,0,,,,,,,,,,,,,,,,,,,,,,,,,,,,,,,,,,,,,,,108.99963222071528,None,szvxtz,"['s', 'z', 'v', 'x', 't', 'z']","[1.1739352736622095, 1.7290739580057561, 3.184581126552075, 3.5496868761256337, 3.9100093794986606, 4.281116666737944, 5.23039239179343, 5.648825433570892, 6.147504178341478, 8.856032567564398, 9.109555209055543]",99.34377666655928,None,99.34377666655928,None,0,SZVXT,99.34377666655928,None,,,,,,,,,,,,,,,,,,,,,,,,,,,,,,,,,,,,,,,,,,,,,,,,,,,,,,,,,,,,,,,,,,,,,,,,,,,,,,,,,,,,,,,,,,,,,,,,,,,,,,,,,,,,,,,,Pilot4,001,2019_Nov_19_1109,test_final,3.2.4,59.98320608272943,
,,,,8,0,8,0,1,0,1,0,,,,,,,,,,,,,,,,,,,,,,,,,,,,,,,,,,,,,,,110.2981808502227,None,,,,,,,,,,,,,,,,,,,,,,,,,,,,,,,,,,,,,,,,,,,,,,,,,,,,,,,,,,,,,,,,,,,,,,,,,,,,,,,,,,,,,,,,,,,,,,,,,,,,,,,,,,,,,,,,,,,,,,,,,,,Pilot4,001,2019_Nov_19_1109,test_final,3.2.4,59.98320608272943,
,,,,8,0,8,0,2,0,2,0,,,,,,,,,,,,,,,,,,,,,,,,,,,,,,,,,,,,,,,111.59677955135703,111.09804756101221,,,,,,,,,,,,,,,,,,,,,,,,,,,,,,,,,,,,,,,,,,,,,,,,,,,,,,,,,,,,,,,,,,,,,,,,,,,,,,,,,,,,,,,,,,,,,,,,,,,,,,,,,,,,,,,,,,,,,,,,,,,Pilot4,001,2019_Nov_19_1109,test_final,3.2.4,59.98320608272943,
,,,,8,0,8,0,3,0,3,0,,,,,,,,,,,,,,,,,,,,,,,,,,,,,,,,,,,,,,,112.87902741273865,112.39577000960708,,,,,,,,,,,,,,,,,,,,,,,,,,,,,,,,,,,,,,,,,,,,,,,,,,,,,,,,,,,,,,,,,,,,,,,,,,,,,,,,,,,,,,,,,,,,,,,,,,,,,,,,,,,,,,,,,,,,,,,,,,,Pilot4,001,2019_Nov_19_1109,test_final,3.2.4,59.98320608272943,
,,,,8,0,8,0,4,0,4,0,,,,,,,,,,,,,,,,,,,,,,,,,,,,,,,,,,,,,,,114.1782287354581,113.69418393913656,,,,,,,,,,,,,,,,,,,,,,,,,,,,,,,,,,,,,,,,,,,,,,,,,,,,,,,,,,,,,,,,,,,,,,,,,,,,,,,,,,,,,,,,,,,,,,,,,,,,,,,,,,,,,,,,,,,,,,,,,,,Pilot4,001,2019_Nov_19_1109,test_final,3.2.4,59.98320608272943,
,,,,9,0,9,0,0,0,0,0,,,,,,,,,,,,,,,,,,,,,,,,,,,,,,,,,,,,,,,118.3728664922528,None,hrvlt,"['h', 'r', 'v', 'l', 't']","[1.247596563771367, 1.3785429168492556, 1.6312146941199899, 1.795914581976831, 1.9431465403176844, 2.354499389883131]",115.4755904567428,None,115.4755904567428,None,1,HRVLT,115.4755904567428,None,,,,,,,,,,,,,,,,,,,,,,,,,,,,,,,,,,,,,,,,,,,,,,,,,,,,,,,,,,,,,,,,,,,,,,,,,,,,,,,,,,,,,,,,,,,,,,,,,,,,,,,,,,,,,,,,Pilot4,001,2019_Nov_19_1109,test_final,3.2.4,59.98320608272943,
,,,,9,0,9,0,1,0,1,0,,,,,,,,,,,,,,,,,,,,,,,,,,,,,,,,,,,,,,,119.67093168431893,119.17147894529626,,,,,,,,,,,,,,,,,,,,,,,,,,,,,,,,,,,,,,,,,,,,,,,,,,,,,,,,,,,,,,,,,,,,,,,,,,,,,,,,,,,,,,,,,,,,,,,,,,,,,,,,,,,,,,,,,,,,,,,,,,,Pilot4,001,2019_Nov_19_1109,test_final,3.2.4,59.98320608272943,
,,,,9,0,9,0,2,0,2,0,,,,,,,,,,,,,,,,,,,,,,,,,,,,,,,,,,,,,,,120.9533607903868,120.47011678665876,,,,,,,,,,,,,,,,,,,,,,,,,,,,,,,,,,,,,,,,,,,,,,,,,,,,,,,,,,,,,,,,,,,,,,,,,,,,,,,,,,,,,,,,,,,,,,,,,,,,,,,,,,,,,,,,,,,,,,,,,,,Pilot4,001,2019_Nov_19_1109,test_final,3.2.4,59.98320608272943,
,,,,9,0,9,0,3,0,3,0,,,,,,,,,,,,,,,,,,,,,,,,,,,,,,,,,,,,,,,122.25185123831034,121.7689203582704,,,,,,,,,,,,,,,,,,,,,,,,,,,,,,,,,,,,,,,,,,,,,,,,,,,,,,,,,,,,,,,,,,,,,,,,,,,,,,,,,,,,,,,,,,,,,,,,,,,,,,,,,,,,,,,,,,,,,,,,,,,Pilot4,001,2019_Nov_19_1109,test_final,3.2.4,59.98320608272943,
,,,,9,0,9,0,4,0,4,0,,,,,,,,,,,,,,,,,,,,,,,,,,,,,,,,,,,,,,,123.53409239975736,123.05079656140879,,,,,,,,,,,,,,,,,,,,,,,,,,,,,,,,,,,,,,,,,,,,,,,,,,,,,,,,,,,,,,,,,,,,,,,,,,,,,,,,,,,,,,,,,,,,,,,,,,,,,,,,,,,,,,,,,,,,,,,,,,,Pilot4,001,2019_Nov_19_1109,test_final,3.2.4,59.98320608272943,
,,,,9,0,9,0,5,0,5,0,,,,,,,,,,,,,,,,,,,,,,,,,,,,,,,,,,,,,,,124.81447597639635,124.33234236296266,,,,,,,,,,,,,,,,,,,,,,,,,,,,,,,,,,,,,,,,,,,,,,,,,,,,,,,,,,,,,,,,,,,,,,,,,,,,,,,,,,,,,,,,,,,,,,,,,,,,,,,,,,,,,,,,,,,,,,,,,,,Pilot4,001,2019_Nov_19_1109,test_final,3.2.4,59.98320608272943,
,,,,10,0,10,0,0,0,0,0,,,,,,,,,,,,,,,,,,,,,,,,,,,,,,,,,,,,,,,129.01108591863886,None,nhkslr,"['n', 'h', 'k', 's', 'l', 'r']","[1.1033346964977682, 1.368196435738355, 1.586877366527915, 1.7586443996988237, 1.8821082250215113, 2.041324569378048, 2.3919970095157623]",126.09719528630376,None,126.09719528630376,None,1,NHKSLR,126.09719528630376,None,,,,,,,,,,,,,,,,,,,,,,,,,,,,,,,,,,,,,,,,,,,,,,,,,,,,,,,,,,,,,,,,,,,,,,,,,,,,,,,,,,,,,,,,,,,,,,,,,,,,,,,,,,,,,,,,Pilot4,001,2019_Nov_19_1109,test_final,3.2.4,59.98320608272943,
,,,,10,0,10,0,1,0,1,0,,,,,,,,,,,,,,,,,,,,,,,,,,,,,,,,,,,,,,,130.32657743105665,129.82647376181558,,,,,,,,,,,,,,,,,,,,,,,,,,,,,,,,,,,,,,,,,,,,,,,,,,,,,,,,,,,,,,,,,,,,,,,,,,,,,,,,,,,,,,,,,,,,,,,,,,,,,,,,,,,,,,,,,,,,,,,,,,,Pilot4,001,2019_Nov_19_1109,test_final,3.2.4,59.98320608272943,
,,,,10,0,10,0,2,0,2,0,,,,,,,,,,,,,,,,,,,,,,,,,,,,,,,,,,,,,,,131.62479495350271,None,,,,,,,,,,,,,,,,,,,,,,,,,,,,,,,,,,,,,,,,,,,,,,,,,,,,,,,,,,,,,,,,,,,,,,,,,,,,,,,,,,,,,,,,,,,,,,,,,,,,,,,,,,,,,,,,,,,,,,,,,,,Pilot4,001,2019_Nov_19_1109,test_final,3.2.4,59.98320608272943,
,,,,10,0,10,0,3,0,3,0,,,,,,,,,,,,,,,,,,,,,,,,,,,,,,,,,,,,,,,132.92351848073304,132.42365141725168,,,,,,,,,,,,,,,,,,,,,,,,,,,,,,,,,,,,,,,,,,,,,,,,,,,,,,,,,,,,,,,,,,,,,,,,,,,,,,,,,,,,,,,,,,,,,,,,,,,,,,,,,,,,,,,,,,,,,,,,,,,Pilot4,001,2019_Nov_19_1109,test_final,3.2.4,59.98320608272943,
,,,,10,0,10,0,4,0,4,0,,,,,,,,,,,,,,,,,,,,,,,,,,,,,,,,,,,,,,,134.2218872755766,133.7220755731687,,,,,,,,,,,,,,,,,,,,,,,,,,,,,,,,,,,,,,,,,,,,,,,,,,,,,,,,,,,,,,,,,,,,,,,,,,,,,,,,,,,,,,,,,,,,,,,,,,,,,,,,,,,,,,,,,,,,,,,,,,,Pilot4,001,2019_Nov_19_1109,test_final,3.2.4,59.98320608272943,
,,,,10,0,10,0,5,0,5,0,,,,,,,,,,,,,,,,,,,,,,,,,,,,,,,,,,,,,,,135.52056848909706,135.02173247700557,,,,,,,,,,,,,,,,,,,,,,,,,,,,,,,,,,,,,,,,,,,,,,,,,,,,,,,,,,,,,,,,,,,,,,,,,,,,,,,,,,,,,,,,,,,,,,,,,,,,,,,,,,,,,,,,,,,,,,,,,,,Pilot4,001,2019_Nov_19_1109,test_final,3.2.4,59.98320608272943,
,,,,11,0,11,0,0,0,0,0,,,,,,,,,,,,,,,,,,,,,,,,,,,,,,,,,,,,,,,140.0657415180467,None,jnlstx,"['j', 'n', 'l', 's', 't', 'x']","[1.4513240759260952, 1.6736732791177928, 1.7613126509822905, 1.9002136858180165, 2.116123049054295, 2.4069095253944397, 2.7103605857118964]",136.81915449583903,None,136.81915449583903,None,1,JNLSTX,136.81915449583903,None,,,,,,,,,,,,,,,,,,,,,,,,,,,,,,,,,,,,,,,,,,,,,,,,,,,,,,,,,,,,,,,,,,,,,,,,,,,,,,,,,,,,,,,,,,,,,,,,,,,,,,,,,,,,,,,,Pilot4,001,2019_Nov_19_1109,test_final,3.2.4,59.98320608272943,
,,,,11,0,11,0,1,0,1,0,,,,,,,,,,,,,,,,,,,,,,,,,,,,,,,,,,,,,,,141.36456730403006,None,,,,,,,,,,,,,,,,,,,,,,,,,,,,,,,,,,,,,,,,,,,,,,,,,,,,,,,,,,,,,,,,,,,,,,,,,,,,,,,,,,,,,,,,,,,,,,,,,,,,,,,,,,,,,,,,,,,,,,,,,,,Pilot4,001,2019_Nov_19_1109,test_final,3.2.4,59.98320608272943,
,,,,11,0,11,0,2,0,2,0,,,,,,,,,,,,,,,,,,,,,,,,,,,,,,,,,,,,,,,142.66282008821145,142.162310204003,,,,,,,,,,,,,,,,,,,,,,,,,,,,,,,,,,,,,,,,,,,,,,,,,,,,,,,,,,,,,,,,,,,,,,,,,,,,,,,,,,,,,,,,,,,,,,,,,,,,,,,,,,,,,,,,,,,,,,,,,,,Pilot4,001,2019_Nov_19_1109,test_final,3.2.4,59.98320608272943,
,,,,11,0,11,0,3,0,3,0,,,,,,,,,,,,,,,,,,,,,,,,,,,,,,,,,,,,,,,143.96077843708917,143.4620475047268,,,,,,,,,,,,,,,,,,,,,,,,,,,,,,,,,,,,,,,,,,,,,,,,,,,,,,,,,,,,,,,,,,,,,,,,,,,,,,,,,,,,,,,,,,,,,,,,,,,,,,,,,,,,,,,,,,,,,,,,,,,Pilot4,001,2019_Nov_19_1109,test_final,3.2.4,59.98320608272943,
,,,,11,0,11,0,4,0,4,0,,,,,,,,,,,,,,,,,,,,,,,,,,,,,,,,,,,,,,,145.2430199510418,144.76011728029698,,,,,,,,,,,,,,,,,,,,,,,,,,,,,,,,,,,,,,,,,,,,,,,,,,,,,,,,,,,,,,,,,,,,,,,,,,,,,,,,,,,,,,,,,,,,,,,,,,,,,,,,,,,,,,,,,,,,,,,,,,,Pilot4,001,2019_Nov_19_1109,test_final,3.2.4,59.98320608272943,
,,,,11,0,11,0,5,0,5,0,,,,,,,,,,,,,,,,,,,,,,,,,,,,,,,,,,,,,,,146.54233834287152,146.05824241694063,,,,,,,,,,,,,,,,,,,,,,,,,,,,,,,,,,,,,,,,,,,,,,,,,,,,,,,,,,,,,,,,,,,,,,,,,,,,,,,,,,,,,,,,,,,,,,,,,,,,,,,,,,,,,,,,,,,,,,,,,,,Pilot4,001,2019_Nov_19_1109,test_final,3.2.4,59.98320608272943,
,,,,11,0,11,0,6,0,6,0,,,,,,,,,,,,,,,,,,,,,,,,,,,,,,,,,,,,,,,147.85770150320604,147.35739084752277,,,,,,,,,,,,,,,,,,,,,,,,,,,,,,,,,,,,,,,,,,,,,,,,,,,,,,,,,,,,,,,,,,,,,,,,,,,,,,,,,,,,,,,,,,,,,,,,,,,,,,,,,,,,,,,,,,,,,,,,,,,Pilot4,001,2019_Nov_19_1109,test_final,3.2.4,59.98320608272943,
,,,,12,0,12,0,0,0,0,0,,,,,,,,,,,,,,,,,,,,,,,,,,,,,,,,,,,,,,,155.1158663444221,None,qrsvxkh,"['q', 'r', 's', 'v', 'x', 'k', 'h']","[1.7211326756514609, 1.9246986890211701, 2.2475207513198256, 3.4567988039925694, 3.85136427404359, 4.325516759883612, 4.629012249875814, 4.855578044429421, 5.054018068127334, 5.440653187222779]",149.15549059584737,None,149.15549059584737,None,1,QRSVXKH,149.15549059584737,None,,,,,,,,,,,,,,,,,,,,,,,,,,,,,,,,,,,,,,,,,,,,,,,,,,,,,,,,,,,,,,,,,,,,,,,,,,,,,,,,,,,,,,,,,,,,,,,,,,,,,,,,,,,,,,,,Pilot4,001,2019_Nov_19_1109,test_final,3.2.4,59.98320608272943,
,,,,12,0,12,0,1,0,1,0,,,,,,,,,,,,,,,,,,,,,,,,,,,,,,,,,,,,,,,156.4144234363921,155.9309128546156,,,,,,,,,,,,,,,,,,,,,,,,,,,,,,,,,,,,,,,,,,,,,,,,,,,,,,,,,,,,,,,,,,,,,,,,,,,,,,,,,,,,,,,,,,,,,,,,,,,,,,,,,,,,,,,,,,,,,,,,,,,Pilot4,001,2019_Nov_19_1109,test_final,3.2.4,59.98320608272943,
,,,,12,0,12,0,2,0,2,0,,,,,,,,,,,,,,,,,,,,,,,,,,,,,,,,,,,,,,,157.71271959226578,157.2129008374177,,,,,,,,,,,,,,,,,,,,,,,,,,,,,,,,,,,,,,,,,,,,,,,,,,,,,,,,,,,,,,,,,,,,,,,,,,,,,,,,,,,,,,,,,,,,,,,,,,,,,,,,,,,,,,,,,,,,,,,,,,,Pilot4,001,2019_Nov_19_1109,test_final,3.2.4,59.98320608272943,
,,,,12,0,12,0,3,0,3,0,,,,,,,,,,,,,,,,,,,,,,,,,,,,,,,,,,,,,,,159.01139622135088,158.5116465794854,,,,,,,,,,,,,,,,,,,,,,,,,,,,,,,,,,,,,,,,,,,,,,,,,,,,,,,,,,,,,,,,,,,,,,,,,,,,,,,,,,,,,,,,,,,,,,,,,,,,,,,,,,,,,,,,,,,,,,,,,,,Pilot4,001,2019_Nov_19_1109,test_final,3.2.4,59.98320608272943,
,,,,12,0,12,0,4,0,4,0,,,,,,,,,,,,,,,,,,,,,,,,,,,,,,,,,,,,,,,160.29348928434774,159.80999174900353,,,,,,,,,,,,,,,,,,,,,,,,,,,,,,,,,,,,,,,,,,,,,,,,,,,,,,,,,,,,,,,,,,,,,,,,,,,,,,,,,,,,,,,,,,,,,,,,,,,,,,,,,,,,,,,,,,,,,,,,,,,Pilot4,001,2019_Nov_19_1109,test_final,3.2.4,59.98320608272943,
,,,,12,0,12,0,5,0,5,0,,,,,,,,,,,,,,,,,,,,,,,,,,,,,,,,,,,,,,,161.60852909460664,161.10875617992133,,,,,,,,,,,,,,,,,,,,,,,,,,,,,,,,,,,,,,,,,,,,,,,,,,,,,,,,,,,,,,,,,,,,,,,,,,,,,,,,,,,,,,,,,,,,,,,,,,,,,,,,,,,,,,,,,,,,,,,,,,,Pilot4,001,2019_Nov_19_1109,test_final,3.2.4,59.98320608272943,
,,,,12,0,12,0,6,0,6,0,,,,,,,,,,,,,,,,,,,,,,,,,,,,,,,,,,,,,,,162.89014118770137,162.40699239075184,,,,,,,,,,,,,,,,,,,,,,,,,,,,,,,,,,,,,,,,,,,,,,,,,,,,,,,,,,,,,,,,,,,,,,,,,,,,,,,,,,,,,,,,,,,,,,,,,,,,,,,,,,,,,,,,,,,,,,,,,,,Pilot4,001,2019_Nov_19_1109,test_final,3.2.4,59.98320608272943,
,,,,13,0,13,0,0,0,0,0,,,,,,,,,,,,,,,,,,,,,,,,,,,,,,,,,,,,,,,174.37805207446218,None,nhlhxqr,"['n', 'h', 'l', 'h', 'x', 'q', 'r']","[1.0107657425105572, 1.2365494333207607, 1.3784149172715843, 3.883362835738808, 5.577445573639125, 5.987416165415198, 8.32856865786016, 8.512152936775237, 8.636467626318336, 8.858465976081789, 9.063828219193965, 9.668945393990725]",164.18918841751292,None,164.18918841751292,None,0,NKLHSRQ,164.18918841751292,None,,,,,,,,,,,,,,,,,,,,,,,,,,,,,,,,,,,,,,,,,,,,,,,,,,,,,,,,,,,,,,,,,,,,,,,,,,,,,,,,,,,,,,,,,,,,,,,,,,,,,,,,,,,,,,,,Pilot4,001,2019_Nov_19_1109,test_final,3.2.4,59.98320608272943,
,,,,13,0,13,0,1,0,1,0,,,,,,,,,,,,,,,,,,,,,,,,,,,,,,,,,,,,,,,175.69350233115256,175.19317862857133,,,,,,,,,,,,,,,,,,,,,,,,,,,,,,,,,,,,,,,,,,,,,,,,,,,,,,,,,,,,,,,,,,,,,,,,,,,,,,,,,,,,,,,,,,,,,,,,,,,,,,,,,,,,,,,,,,,,,,,,,,,Pilot4,001,2019_Nov_19_1109,test_final,3.2.4,59.98320608272943,
,,,,13,0,13,0,2,0,2,0,,,,,,,,,,,,,,,,,,,,,,,,,,,,,,,,,,,,,,,176.99177062977105,None,,,,,,,,,,,,,,,,,,,,,,,,,,,,,,,,,,,,,,,,,,,,,,,,,,,,,,,,,,,,,,,,,,,,,,,,,,,,,,,,,,,,,,,,,,,,,,,,,,,,,,,,,,,,,,,,,,,,,,,,,,,Pilot4,001,2019_Nov_19_1109,test_final,3.2.4,59.98320608272943,
,,,,13,0,13,0,3,0,3,0,,,,,,,,,,,,,,,,,,,,,,,,,,,,,,,,,,,,,,,178.28991128178313,None,,,,,,,,,,,,,,,,,,,,,,,,,,,,,,,,,,,,,,,,,,,,,,,,,,,,,,,,,,,,,,,,,,,,,,,,,,,,,,,,,,,,,,,,,,,,,,,,,,,,,,,,,,,,,,,,,,,,,,,,,,,Pilot4,001,2019_Nov_19_1109,test_final,3.2.4,59.98320608272943,
,,,,13,0,13,0,4,0,4,0,,,,,,,,,,,,,,,,,,,,,,,,,,,,,,,,,,,,,,,179.5724426470697,179.08891372894868,,,,,,,,,,,,,,,,,,,,,,,,,,,,,,,,,,,,,,,,,,,,,,,,,,,,,,,,,,,,,,,,,,,,,,,,,,,,,,,,,,,,,,,,,,,,,,,,,,,,,,,,,,,,,,,,,,,,,,,,,,,Pilot4,001,2019_Nov_19_1109,test_final,3.2.4,59.98320608272943,
,,,,13,0,13,0,5,0,5,0,,,,,,,,,,,,,,,,,,,,,,,,,,,,,,,,,,,,,,,180.88746905792505,180.3875755481422,,,,,,,,,,,,,,,,,,,,,,,,,,,,,,,,,,,,,,,,,,,,,,,,,,,,,,,,,,,,,,,,,,,,,,,,,,,,,,,,,,,,,,,,,,,,,,,,,,,,,,,,,,,,,,,,,,,,,,,,,,,Pilot4,001,2019_Nov_19_1109,test_final,3.2.4,59.98320608272943,
,,,,13,0,13,0,6,0,6,0,,,,,,,,,,,,,,,,,,,,,,,,,,,,,,,,,,,,,,,182.16945351473987,181.68594681145623,,,,,,,,,,,,,,,,,,,,,,,,,,,,,,,,,,,,,,,,,,,,,,,,,,,,,,,,,,,,,,,,,,,,,,,,,,,,,,,,,,,,,,,,,,,,,,,,,,,,,,,,,,,,,,,,,,,,,,,,,,,Pilot4,001,2019_Nov_19_1109,test_final,3.2.4,59.98320608272943,
,,,,14,0,14,0,0,0,0,0,,,,,,,,,,,,,,,,,,,,,,,,,,,,,,,,,,,,,,,191.64218354411423,None,ljtrkxz,"['l', 'j', 't', 'r', 'k', 'x', 'z']","[2.696182570885867, 3.1643553813919425, 3.421063915360719, 3.7481293682940304, 4.064581761136651, 4.648501731455326, 5.020464114379138, 7.669205977581441]",183.45163473160937,None,183.45163473160937,None,1,LJTRKXZ,183.45163473160937,None,,,,,,,,,,,,,,,,,,,,,,,,,,,,,,,,,,,,,,,,,,,,,,,,,,,,,,,,,,,,,,,,,,,,,,,,,,,,,,,,,,,,,,,,,,,,,,,,,,,,,,,,,,,,,,,,Pilot4,001,2019_Nov_19_1109,test_final,3.2.4,59.98320608272943,
,,,,14,0,14,0,1,0,1,0,,,,,,,,,,,,,,,,,,,,,,,,,,,,,,,,,,,,,,,192.95713802147657,192.4574723020196,,,,,,,,,,,,,,,,,,,,,,,,,,,,,,,,,,,,,,,,,,,,,,,,,,,,,,,,,,,,,,,,,,,,,,,,,,,,,,,,,,,,,,,,,,,,,,,,,,,,,,,,,,,,,,,,,,,,,,,,,,,Pilot4,001,2019_Nov_19_1109,test_final,3.2.4,59.98320608272943,
,,,,14,0,14,0,2,0,2,0,,,,,,,,,,,,,,,,,,,,,,,,,,,,,,,,,,,,,,,194.2389190183021,193.7559849647805,,,,,,,,,,,,,,,,,,,,,,,,,,,,,,,,,,,,,,,,,,,,,,,,,,,,,,,,,,,,,,,,,,,,,,,,,,,,,,,,,,,,,,,,,,,,,,,,,,,,,,,,,,,,,,,,,,,,,,,,,,,Pilot4,001,2019_Nov_19_1109,test_final,3.2.4,59.98320608272943,
,,,,14,0,14,0,3,0,3,0,,,,,,,,,,,,,,,,,,,,,,,,,,,,,,,,,,,,,,,195.52190596424043,195.03796201618388,,,,,,,,,,,,,,,,,,,,,,,,,,,,,,,,,,,,,,,,,,,,,,,,,,,,,,,,,,,,,,,,,,,,,,,,,,,,,,,,,,,,,,,,,,,,,,,,,,,,,,,,,,,,,,,,,,,,,,,,,,,Pilot4,001,2019_Nov_19_1109,test_final,3.2.4,59.98320608272943,
,,,,14,0,14,0,4,0,4,0,,,,,,,,,,,,,,,,,,,,,,,,,,,,,,,,,,,,,,,196.8197486549616,196.33677263977006,,,,,,,,,,,,,,,,,,,,,,,,,,,,,,,,,,,,,,,,,,,,,,,,,,,,,,,,,,,,,,,,,,,,,,,,,,,,,,,,,,,,,,,,,,,,,,,,,,,,,,,,,,,,,,,,,,,,,,,,,,,Pilot4,001,2019_Nov_19_1109,test_final,3.2.4,59.98320608272943,
,,,,14,0,14,0,5,0,5,0,,,,,,,,,,,,,,,,,,,,,,,,,,,,,,,,,,,,,,,198.10248383274302,197.61849686549976,,,,,,,,,,,,,,,,,,,,,,,,,,,,,,,,,,,,,,,,,,,,,,,,,,,,,,,,,,,,,,,,,,,,,,,,,,,,,,,,,,,,,,,,,,,,,,,,,,,,,,,,,,,,,,,,,,,,,,,,,,,Pilot4,001,2019_Nov_19_1109,test_final,3.2.4,59.98320608272943,
,,,,14,0,14,0,6,0,6,0,,,,,,,,,,,,,,,,,,,,,,,,,,,,,,,,,,,,,,,199.4170426740311,198.91718266252428,,,,,,,,,,,,,,,,,,,,,,,,,,,,,,,,,,,,,,,,,,,,,,,,,,,,,,,,,,,,,,,,,,,,,,,,,,,,,,,,,,,,,,,,,,,,,,,,,,,,,,,,,,,,,,,,,,,,,,,,,,,Pilot4,001,2019_Nov_19_1109,test_final,3.2.4,59.98320608272943,
,,,,14,0,14,0,7,0,7,0,,,,,,,,,,,,,,,,,,,,,,,,,,,,,,,,,,,,,,,200.71548904431984,200.21573411300778,,,,,,,,,,,,,,,,,,,,,,,,,,,,,,,,,,,,,,,,,,,,,,,,,,,,,,,,,,,,,,,,,,,,,,,,,,,,,,,,,,,,,,,,,,,,,,,,,,,,,,,,,,,,,,,,,,,,,,,,,,,Pilot4,001,2019_Nov_19_1109,test_final,3.2.4,59.98320608272943,
,,,,15,0,15,0,0,0,0,0,,,,,,,,,,,,,,,,,,,,,,,,,,,,,,,,,,,,,,,211.38758542155847,None,lrkvxsnt,"['l', 'r', 'k', 'v', 'x', 's', 'n', 't']","[0.6012662467546761, 0.9062406118027866, 1.5681195654906332, 1.7719295895658433, 2.0392074584960938, 2.4780009449459612, 2.5937354103662074, 2.8395717116072774, 3.1036545201204717, 3.399639625567943, 8.858683187980205]",201.99730671336874,None,201.99730671336874,None,0,LRZVXSNT,201.99730671336874,None,,,,,,,,,,,,,,,,,,,,,,,,,,,,,,,,,,,,,,,,,,,,,,,,,,,,,,,,,,,,,,,,,,,,,,,,,,,,,,,,,,,,,,,,,,,,,,,,,,,,,,,,,,,,,,,,Pilot4,001,2019_Nov_19_1109,test_final,3.2.4,59.98320608272943,
,,,,15,0,15,0,1,0,1,0,,,,,,,,,,,,,,,,,,,,,,,,,,,,,,,,,,,,,,,212.70223700115457,212.20246690697968,,,,,,,,,,,,,,,,,,,,,,,,,,,,,,,,,,,,,,,,,,,,,,,,,,,,,,,,,,,,,,,,,,,,,,,,,,,,,,,,,,,,,,,,,,,,,,,,,,,,,,,,,,,,,,,,,,,,,,,,,,,Pilot4,001,2019_Nov_19_1109,test_final,3.2.4,59.98320608272943,
,,,,15,0,15,0,2,0,2,0,,,,,,,,,,,,,,,,,,,,,,,,,,,,,,,,,,,,,,,214.0008346438408,213.50095841242,,,,,,,,,,,,,,,,,,,,,,,,,,,,,,,,,,,,,,,,,,,,,,,,,,,,,,,,,,,,,,,,,,,,,,,,,,,,,,,,,,,,,,,,,,,,,,,,,,,,,,,,,,,,,,,,,,,,,,,,,,,Pilot4,001,2019_Nov_19_1109,test_final,3.2.4,59.98320608272943,
,,,,15,0,15,0,3,0,3,0,,,,,,,,,,,,,,,,,,,,,,,,,,,,,,,,,,,,,,,215.29933143872768,214.7999044409953,,,,,,,,,,,,,,,,,,,,,,,,,,,,,,,,,,,,,,,,,,,,,,,,,,,,,,,,,,,,,,,,,,,,,,,,,,,,,,,,,,,,,,,,,,,,,,,,,,,,,,,,,,,,,,,,,,,,,,,,,,,Pilot4,001,2019_Nov_19_1109,test_final,3.2.4,59.98320608272943,
,,,,15,0,15,0,4,0,4,0,,,,,,,,,,,,,,,,,,,,,,,,,,,,,,,,,,,,,,,216.59858635952696,216.09846012294292,,,,,,,,,,,,,,,,,,,,,,,,,,,,,,,,,,,,,,,,,,,,,,,,,,,,,,,,,,,,,,,,,,,,,,,,,,,,,,,,,,,,,,,,,,,,,,,,,,,,,,,,,,,,,,,,,,,,,,,,,,,Pilot4,001,2019_Nov_19_1109,test_final,3.2.4,59.98320608272943,
,,,,15,0,15,0,5,0,5,0,,,,,,,,,,,,,,,,,,,,,,,,,,,,,,,,,,,,,,,217.896656840574,None,,,,,,,,,,,,,,,,,,,,,,,,,,,,,,,,,,,,,,,,,,,,,,,,,,,,,,,,,,,,,,,,,,,,,,,,,,,,,,,,,,,,,,,,,,,,,,,,,,,,,,,,,,,,,,,,,,,,,,,,,,,Pilot4,001,2019_Nov_19_1109,test_final,3.2.4,59.98320608272943,
,,,,15,0,15,0,6,0,6,0,,,,,,,,,,,,,,,,,,,,,,,,,,,,,,,,,,,,,,,219.194842627272,None,,,,,,,,,,,,,,,,,,,,,,,,,,,,,,,,,,,,,,,,,,,,,,,,,,,,,,,,,,,,,,,,,,,,,,,,,,,,,,,,,,,,,,,,,,,,,,,,,,,,,,,,,,,,,,,,,,,,,,,,,,,Pilot4,001,2019_Nov_19_1109,test_final,3.2.4,59.98320608272943,
,,,,15,0,15,0,7,0,7,0,,,,,,,,,,,,,,,,,,,,,,,,,,,,,,,,,,,,,,,220.49384366394952,219.99536132672802,,,,,,,,,,,,,,,,,,,,,,,,,,,,,,,,,,,,,,,,,,,,,,,,,,,,,,,,,,,,,,,,,,,,,,,,,,,,,,,,,,,,,,,,,,,,,,,,,,,,,,,,,,,,,,,,,,,,,,,,,,,Pilot4,001,2019_Nov_19_1109,test_final,3.2.4,59.98320608272943,
,,,,16,0,16,0,0,0,0,0,,,,,,,,,,,,,,,,,,,,,,,,,,,,,,,,,,,,,,,234.42855913750827,None,zxhjknrs,"['z', 'x', 'h', 'j', 'k', 'n', 'r', 's']","[0.9365374441258609, 1.3187324129976332, 1.718734881374985, 2.2392896180972457, 2.5914659686386585, 5.660199440084398, 6.331914991140366, 6.777944173663855, 12.131115961354226]",221.77571105165407,None,221.77571105165407,None,0,ZXHSKJNR,221.77571105165407,None,,,,,,,,,,,,,,,,,,,,,,,,,,,,,,,,,,,,,,,,,,,,,,,,,,,,,,,,,,,,,,,,,,,,,,,,,,,,,,,,,,,,,,,,,,,,,,,,,,,,,,,,,,,,,,,,Pilot4,001,2019_Nov_19_1109,test_final,3.2.4,59.98320608272943,
,,,,16,0,16,0,1,0,1,0,,,,,,,,,,,,,,,,,,,,,,,,,,,,,,,,,,,,,,,235.71012539044023,235.22719944734126,,,,,,,,,,,,,,,,,,,,,,,,,,,,,,,,,,,,,,,,,,,,,,,,,,,,,,,,,,,,,,,,,,,,,,,,,,,,,,,,,,,,,,,,,,,,,,,,,,,,,,,,,,,,,,,,,,,,,,,,,,,Pilot4,001,2019_Nov_19_1109,test_final,3.2.4,59.98320608272943,
,,,,16,0,16,0,2,0,2,0,,,,,,,,,,,,,,,,,,,,,,,,,,,,,,,,,,,,,,,236.99232529615983,236.50928087346256,,,,,,,,,,,,,,,,,,,,,,,,,,,,,,,,,,,,,,,,,,,,,,,,,,,,,,,,,,,,,,,,,,,,,,,,,,,,,,,,,,,,,,,,,,,,,,,,,,,,,,,,,,,,,,,,,,,,,,,,,,,Pilot4,001,2019_Nov_19_1109,test_final,3.2.4,59.98320608272943,
,,,,16,0,16,0,3,0,3,0,,,,,,,,,,,,,,,,,,,,,,,,,,,,,,,,,,,,,,,238.3061912455596,237.80746207619086,,,,,,,,,,,,,,,,,,,,,,,,,,,,,,,,,,,,,,,,,,,,,,,,,,,,,,,,,,,,,,,,,,,,,,,,,,,,,,,,,,,,,,,,,,,,,,,,,,,,,,,,,,,,,,,,,,,,,,,,,,,Pilot4,001,2019_Nov_19_1109,test_final,3.2.4,59.98320608272943,
,,,,16,0,16,0,4,0,4,0,,,,,,,,,,,,,,,,,,,,,,,,,,,,,,,,,,,,,,,239.58935978915542,239.10643525607884,,,,,,,,,,,,,,,,,,,,,,,,,,,,,,,,,,,,,,,,,,,,,,,,,,,,,,,,,,,,,,,,,,,,,,,,,,,,,,,,,,,,,,,,,,,,,,,,,,,,,,,,,,,,,,,,,,,,,,,,,,,Pilot4,001,2019_Nov_19_1109,test_final,3.2.4,59.98320608272943,
,,,,16,0,16,0,5,0,5,0,,,,,,,,,,,,,,,,,,,,,,,,,,,,,,,,,,,,,,,240.87191019579768,240.3883403739892,,,,,,,,,,,,,,,,,,,,,,,,,,,,,,,,,,,,,,,,,,,,,,,,,,,,,,,,,,,,,,,,,,,,,,,,,,,,,,,,,,,,,,,,,,,,,,,,,,,,,,,,,,,,,,,,,,,,,,,,,,,Pilot4,001,2019_Nov_19_1109,test_final,3.2.4,59.98320608272943,
,,,,16,0,16,0,6,0,6,0,,,,,,,,,,,,,,,,,,,,,,,,,,,,,,,,,,,,,,,242.1710089072585,241.6869165073149,,,,,,,,,,,,,,,,,,,,,,,,,,,,,,,,,,,,,,,,,,,,,,,,,,,,,,,,,,,,,,,,,,,,,,,,,,,,,,,,,,,,,,,,,,,,,,,,,,,,,,,,,,,,,,,,,,,,,,,,,,,Pilot4,001,2019_Nov_19_1109,test_final,3.2.4,59.98320608272943,
,,,,16,0,16,0,7,0,7,0,,,,,,,,,,,,,,,,,,,,,,,,,,,,,,,,,,,,,,,243.46925393352285,242.98565061343834,,,,,,,,,,,,,,,,,,,,,,,,,,,,,,,,,,,,,,,,,,,,,,,,,,,,,,,,,,,,,,,,,,,,,,,,,,,,,,,,,,,,,,,,,,,,,,,,,,,,,,,,,,,,,,,,,,,,,,,,,,,Pilot4,001,2019_Nov_19_1109,test_final,3.2.4,59.98320608272943,
,,,,17,0,17,0,0,0,0,0,,,,,,,,,,,,,,,,,,,,,,,,,,,,,,,,,,,,,,,252.14257918018848,None,zqvrlskn,"['z', 'q', 'v', 'r', 'l', 's', 'k', 'n']","[0.6770086814649403, 1.3057621102780104, 1.7587515953928232, 2.0721704266034067, 2.3199799712747335, 2.738247988279909, 3.244563707150519, 3.6014778167009354, 6.841667665634304]",244.76820983551443,None,244.76820983551443,None,1,ZQVRLSKN,244.76820983551443,None,,,,,,,,,,,,,,,,,,,,,,,,,,,,,,,,,,,,,,,,,,,,,,,,,,,,,,,,,,,,,,,,,,,,,,,,,,,,,,,,,,,,,,,,,,,,,,,,,,,,,,,,,,,,,,,,Pilot4,001,2019_Nov_19_1109,test_final,3.2.4,59.98320608272943,
,,,,17,0,17,0,1,0,1,0,,,,,,,,,,,,,,,,,,,,,,,,,,,,,,,,,,,,,,,253.4409440960735,None,,,,,,,,,,,,,,,,,,,,,,,,,,,,,,,,,,,,,,,,,,,,,,,,,,,,,,,,,,,,,,,,,,,,,,,,,,,,,,,,,,,,,,,,,,,,,,,,,,,,,,,,,,,,,,,,,,,,,,,,,,,Pilot4,001,2019_Nov_19_1109,test_final,3.2.4,59.98320608272943,
,,,,17,0,17,0,2,0,2,0,,,,,,,,,,,,,,,,,,,,,,,,,,,,,,,,,,,,,,,254.7392229740508,254.23998815240338,,,,,,,,,,,,,,,,,,,,,,,,,,,,,,,,,,,,,,,,,,,,,,,,,,,,,,,,,,,,,,,,,,,,,,,,,,,,,,,,,,,,,,,,,,,,,,,,,,,,,,,,,,,,,,,,,,,,,,,,,,,Pilot4,001,2019_Nov_19_1109,test_final,3.2.4,59.98320608272943,
,,,,17,0,17,0,3,0,3,0,,,,,,,,,,,,,,,,,,,,,,,,,,,,,,,,,,,,,,,256.0381767600775,255.53905407059938,,,,,,,,,,,,,,,,,,,,,,,,,,,,,,,,,,,,,,,,,,,,,,,,,,,,,,,,,,,,,,,,,,,,,,,,,,,,,,,,,,,,,,,,,,,,,,,,,,,,,,,,,,,,,,,,,,,,,,,,,,,Pilot4,001,2019_Nov_19_1109,test_final,3.2.4,59.98320608272943,
,,,,17,0,17,0,4,0,4,0,,,,,,,,,,,,,,,,,,,,,,,,,,,,,,,,,,,,,,,257.3368435157463,256.8370208819397,,,,,,,,,,,,,,,,,,,,,,,,,,,,,,,,,,,,,,,,,,,,,,,,,,,,,,,,,,,,,,,,,,,,,,,,,,,,,,,,,,,,,,,,,,,,,,,,,,,,,,,,,,,,,,,,,,,,,,,,,,,Pilot4,001,2019_Nov_19_1109,test_final,3.2.4,59.98320608272943,
,,,,17,0,17,0,5,0,5,0,,,,,,,,,,,,,,,,,,,,,,,,,,,,,,,,,,,,,,,258.63564920285717,258.13520702160895,,,,,,,,,,,,,,,,,,,,,,,,,,,,,,,,,,,,,,,,,,,,,,,,,,,,,,,,,,,,,,,,,,,,,,,,,,,,,,,,,,,,,,,,,,,,,,,,,,,,,,,,,,,,,,,,,,,,,,,,,,,Pilot4,001,2019_Nov_19_1109,test_final,3.2.4,59.98320608272943,
,,,,17,0,17,0,6,0,6,0,,,,,,,,,,,,,,,,,,,,,,,,,,,,,,,,,,,,,,,259.9334143176675,None,,,,,,,,,,,,,,,,,,,,,,,,,,,,,,,,,,,,,,,,,,,,,,,,,,,,,,,,,,,,,,,,,,,,,,,,,,,,,,,,,,,,,,,,,,,,,,,,,,,,,,,,,,,,,,,,,,,,,,,,,,,Pilot4,001,2019_Nov_19_1109,test_final,3.2.4,59.98320608272943,
,,,,17,0,17,0,7,0,7,0,,,,,,,,,,,,,,,,,,,,,,,,,,,,,,,,,,,,,,,261.23263609269634,260.73275280883536,,,,,,,,,,,,,,,,,,,,,,,,,,,,,,,,,,,,,,,,,,,,,,,,,,,,,,,,,,,,,,,,,,,,,,,,,,,,,,,,,,,,,,,,,,,,,,,,,,,,,,,,,,,,,,,,,,,,,,,,,,,Pilot4,001,2019_Nov_19_1109,test_final,3.2.4,59.98320608272943,
,,,,,,,,,,,,,,,,,,,,,,,,,,,,,,,,,,,,,,,,,,,,,,,,,,,,xsvzhjkln,"['x', 's', 'v', 'z', 'h', 'j', 'k', 'l', 'n']","[6.378091567661613, 6.5838039591908455, 6.79215709771961, 7.941651445347816, 8.30149544775486, 8.63220801576972, 8.828941374085844, 9.008521689567715, 9.19478303520009, 10.668223234824836, 10.843143719714135, 11.01652397448197, 11.150393872987479, 11.289097089786083, 11.428967115003616, 11.596122978720814, 11.860665246844292, 12.240312559530139, 12.604708491824567, 12.870988808106631, 13.02179489005357, 13.165327898226678, 13.353653815109283, 13.697414613794535]",262.51452040625736,None,262.51452040625736,None,0,XSZJVHLN,262.51452040625736,None,276.7315711900592,None,space,3.3473789994604886,276.7315711900592,None,,,,,,,,,,,,,,,,,,,,,,,,,,,,,,,,,,,,,,,,,,,,,,,,,,,,,,,,,,,,,,,,,,,,,,,,,,,,,,,,,,,,,,,,,,,,,,,,,,,,,,,,,,Pilot4,001,2019_Nov_19_1109,test_final,3.2.4,59.98320608272943,
Practice,2,(1/1) - 1,0,,,,,,,,,0,0,0,0,0,0,0,1,,,,,,,,,,,,,,,,,,,,,,,,,,,,,,,,,,,,,,,,,,,,,,,,,,0,280.6772414087318,None,['0'],0,[2.5254938397556543],280.6772414087318,None,280.6772414087318,None,[2.5254938397556543],280.6772414087318,None,283.740375678055,None,,,,,,,,,,,,,,,,,,,,,,,,,,,,,,,,,,,,,,,,,,,,,,,,,,,,,,,,,,,,,,,,,,,,,,,,,,,,,,,,,,,,,,,,,,,Pilot4,001,2019_Nov_19_1109,test_final,3.2.4,59.98320608272943,
Practice,8,(3/3) + 5,6,,,,,,,,,0,0,0,0,0,1,1,7,,,,,,,,,,,,,,,,,,,,,,,,,,,,,,,,,,,,,,,,,,,,,,,,,,6,285.2389144343324,None,['6'],0,[2.8553301552310586],285.2389144343324,None,285.2389144343324,None,"[2.5254938397556543, 2.8553301552310586]",285.2389144343324,None,288.61899229185656,None,,,,,,,,,,,,,,,,,,,,,,,,,,,,,,,,,,,,,,,,,,,,,,,,,,,,,,,,,,,,,,,,,,,,,,,,,,,,,,,,,,,,,,,,,,,Pilot4,001,2019_Nov_19_1109,test_final,3.2.4,59.98320608272943,
Practice,10,(8/4) + 3,5,,,,,,,,,0,0,0,0,0,2,2,9,,,,,,,,,,,,,,,,,,,,,,,,,,,,,,,,,,,,,,,,,,,,,,,,,,5,290.11767526809126,None,['5'],0,[2.0439505064859986],290.11767526809126,None,290.11767526809126,None,"[2.5254938397556543, 2.8553301552310586, 2.0439505064859986]",290.11767526809126,None,292.69817838212475,None,,,,,,,,,,,,,,,,,,,,,,,,,,,,,,,,,,,,,,,,,,,,,,,,,,,,,,,,,,,,,,,,,,,,,,,,,,,,,,,,,,,,,,,,,,,Pilot4,001,2019_Nov_19_1109,test_final,3.2.4,59.98320608272943,
Practice,13,(3x8) - 19 ,5,,,,,,,,,0,0,0,0,0,3,3,12,,,,,,,,,,,,,,,,,,,,,,,,,,,,,,,,,,,,,,,,,,,,,,,,,,5,294.19639096735045,None,['5'],0,[2.2903848458081484],294.19639096735045,None,294.19639096735045,None,"[2.5254938397556543, 2.8553301552310586, 2.0439505064859986, 2.2903848458081484]",294.19639096735045,None,297.0264610676095,None,,,,,,,,,,,,,,,,,,,,,,,,,,,,,,,,,,,,,,,,,,,,,,,,,,,,,,,,,,,,,,,,,,,,,,,,,,,,,,,,,,,,,,,,,,,Pilot4,001,2019_Nov_19_1109,test_final,3.2.4,59.98320608272943,
Practice,4,(4x4) - 14,2,,,,,,,,,0,0,0,0,0,4,4,3,,,,,,,,,,,,,,,,,,,,,,,,,,,,,,,,,,,,,,,,,,,,,,,,,,2,298.5246768267825,None,['2'],0,[1.5810680058784783],298.5246768267825,None,298.5246768267825,None,"[2.5254938397556543, 2.8553301552310586, 2.0439505064859986, 2.2903848458081484, 1.5810680058784783]",298.5246768267825,None,300.6228322884999,None,,,,,,,,,,,,,,,,,,,,,,,,,,,,,,,,,,,,,,,,,,,,,,,,,,,,,,,,,,,,,,,,,,,,,,,,,,,,,,,,,,,,,,,,,,,Pilot4,001,2019_Nov_19_1109,test_final,3.2.4,59.98320608272943,
Practice,6,(2x6) - 8,4,,,,,,,,,0,0,0,0,0,5,5,5,,,,,,,,,,,,,,,,,,,,,,,,,,,,,,,,,,,,,,,,,,,,,,,,,,4,302.1211785157211,None,['4'],0,[2.200144572649151],302.1211785157211,None,302.1211785157211,None,"[2.5254938397556543, 2.8553301552310586, 2.0439505064859986, 2.2903848458081484, 1.5810680058784783, 2.200144572649151]",302.1211785157211,None,304.8508593272418,None,,,,,,,,,,,,,,,,,,,,,,,,,,,,,,,,,,,,,,,,,,,,,,,,,,,,,,,,,,,,,,,,,,,,,,,,,,,,,,,,,,,,,,,,,,,Pilot4,001,2019_Nov_19_1109,test_final,3.2.4,59.98320608272943,
Practice,11,(5x3) - 7,8,,,,,,,,,0,0,0,0,0,6,6,10,,,,,,,,,,,,,,,,,,,,,,,,,,,,,,,,,,,,,,,,,,,,,,,,,,8,306.36574116535485,None,['8'],0,[2.1148458709940314],306.36574116535485,None,306.36574116535485,None,"[2.5254938397556543, 2.8553301552310586, 2.0439505064859986, 2.2903848458081484, 1.5810680058784783, 2.200144572649151, 2.1148458709940314]",306.36574116535485,None,309.0133966165595,None,,,,,,,,,,,,,,,,,,,,,,,,,,,,,,,,,,,,,,,,,,,,,,,,,,,,,,,,,,,,,,,,,,,,,,,,,,,,,,,,,,,,,,,,,,,Pilot4,001,2019_Nov_19_1109,test_final,3.2.4,59.98320608272943,
Practice,1,(1x2) + 1,3,,,,,,,,,0,0,0,0,0,7,7,0,,,,,,,,,,,,,,,,,,,,,,,,,,,,,,,,,,,,,,,,,,,,,,,,,,3,310.5117484857328,None,['3'],0,[1.4854753627441823],310.5117484857328,None,310.5117484857328,None,"[2.5254938397556543, 2.8553301552310586, 2.0439505064859986, 2.2903848458081484, 1.5810680058784783, 2.200144572649151, 2.1148458709940314, 1.4854753627441823]",310.5117484857328,None,312.5255618947558,None,,,,,,,,,,,,,,,,,,,,,,,,,,,,,,,,,,,,,,,,,,,,,,,,,,,,,,,,,,,,,,,,,,,,,,,,,,,,,,,,,,,,,,,,,,,Pilot4,001,2019_Nov_19_1109,test_final,3.2.4,59.98320608272943,
Practice,5,(3/3) + 2,3,,,,,,,,,0,0,0,0,0,8,8,4,,,,,,,,,,,,,,,,,,,,,,,,,,,,,,,,,,,,,,,,,,,,,,,,,,3,314.02419867832214,None,['3'],0,[2.317464050836861],314.02419867832214,None,314.02419867832214,None,"[2.5254938397556543, 2.8553301552310586, 2.0439505064859986, 2.2903848458081484, 1.5810680058784783, 2.200144572649151, 2.1148458709940314, 1.4854753627441823, 2.317464050836861]",314.02419867832214,None,316.8715092702769,None,,,,,,,,,,,,,,,,,,,,,,,,,,,,,,,,,,,,,,,,,,,,,,,,,,,,,,,,,,,,,,,,,,,,,,,,,,,,,,,,,,,,,,,,,,,Pilot4,001,2019_Nov_19_1109,test_final,3.2.4,59.98320608272943,
Practice,15,(9/3) - 2,1,,,,,,,,,0,0,0,0,0,9,9,14,,,,,,,,,,,,,,,,,,,,,,,,,,,,,,,,,,,,,,,,,,,,,,,,,,1,318.36906457832083,None,['1'],0,[2.1194348260760307],318.36906457832083,None,318.36906457832083,None,"[2.5254938397556543, 2.8553301552310586, 2.0439505064859986, 2.2903848458081484, 1.5810680058784783, 2.200144572649151, 2.1148458709940314, 1.4854753627441823, 2.317464050836861, 2.1194348260760307]",318.36906457832083,None,321.0171703211963,None,,,,,,,,,,,,,,,,,,,,,,,,,,,,,,,,,,,,,,,,,,,,,,,,,,,,,,,,,,,,,,,,,,,,,,,,,,,,,,,,,,,,,,,,,,,Pilot4,001,2019_Nov_19_1109,test_final,3.2.4,59.98320608272943,
Practice,7,(4x6) - 17,7,,,,,,,,,0,0,0,0,0,10,10,6,,,,,,,,,,,,,,,,,,,,,,,,,,,,,,,,,,,,,,,,,,,,,,,,,,7,322.53106518508866,None,['7'],0,[4.279284822288901],322.53106518508866,None,322.53106518508866,None,"[2.5254938397556543, 2.8553301552310586, 2.0439505064859986, 2.2903848458081484, 1.5810680058784783, 2.200144572649151, 2.1148458709940314, 1.4854753627441823, 2.317464050836861, 2.1194348260760307, 4.279284822288901]",322.53106518508866,None,327.32657002611086,None,,,,,,,,,,,,,,,,,,,,,,,,,,,,,,,,,,,,,,,,,,,,,,,,,,,,,,,,,,,,,,,,,,,,,,,,,,,,,,,,,,,,,,,,,,,Pilot4,001,2019_Nov_19_1109,test_final,3.2.4,59.98320608272943,
Practice,9,(4/2) + 5,7,,,,,,,,,0,0,0,0,0,11,11,8,,,,,,,,,,,,,,,,,,,,,,,,,,,,,,,,,,,,,,,,,,,,,,,,,,7,328.841763577424,None,['7'],0,[2.4769850559532642],328.841763577424,None,328.841763577424,None,"[2.5254938397556543, 2.8553301552310586, 2.0439505064859986, 2.2903848458081484, 1.5810680058784783, 2.200144572649151, 2.1148458709940314, 1.4854753627441823, 2.317464050836861, 2.1194348260760307, 4.279284822288901, 2.4769850559532642]",328.841763577424,None,331.83807026967406,None,,,,,,,,,,,,,,,,,,,,,,,,,,,,,,,,,,,,,,,,,,,,,,,,,,,,,,,,,,,,,,,,,,,,,,,,,,,,,,,,,,,,,,,,,,,Pilot4,001,2019_Nov_19_1109,test_final,3.2.4,59.98320608272943,
Practice,3,(7x2) - 5,9,,,,,,,,,0,0,0,0,0,12,12,2,,,,,,,,,,,,,,,,,,,,,,,,,,,,,,,,,,,,,,,,,,,,,,,,,,9,333.3364108549431,None,['9'],0,[2.1143708964809775],333.3364108549431,None,333.3364108549431,None,"[2.5254938397556543, 2.8553301552310586, 2.0439505064859986, 2.2903848458081484, 1.5810680058784783, 2.200144572649151, 2.1148458709940314, 1.4854753627441823, 2.317464050836861, 2.1194348260760307, 4.279284822288901, 2.4769850559532642, 2.1143708964809775]",333.3364108549431,None,335.96726023824885,None,,,,,,,,,,,,,,,,,,,,,,,,,,,,,,,,,,,,,,,,,,,,,,,,,,,,,,,,,,,,,,,,,,,,,,,,,,,,,,,,,,,,,,,,,,,Pilot4,001,2019_Nov_19_1109,test_final,3.2.4,59.98320608272943,
Practice,12,(8/2) + 4,8,,,,,,,,,0,0,0,0,0,13,13,11,,,,,,,,,,,,,,,,,,,,,,,,,,,,,,,,,,,,,,,,,,,,,,,,,,8,337.48154121730477,None,['8'],0,[3.580165659543127],337.48154121730477,None,337.48154121730477,None,"[2.5254938397556543, 2.8553301552310586, 2.0439505064859986, 2.2903848458081484, 1.5810680058784783, 2.200144572649151, 2.1148458709940314, 1.4854753627441823, 2.317464050836861, 2.1194348260760307, 4.279284822288901, 2.4769850559532642, 2.1143708964809775, 3.580165659543127]",337.48154121730477,None,341.57738527609035,None,,,,,,,,,,,,,,,,,,,,,,,,,,,,,,,,,,,,,,,,,,,,,,,,,,,,,,,,,,,,,,,,,,,,,,,,,,,,,,,,,,,,,,,,,,,Pilot4,001,2019_Nov_19_1109,test_final,3.2.4,59.98320608272943,
Practice,14,(6/3) + 4 ,6,,,,,,,,,0,0,0,0,0,14,14,13,,,,,,,,,,,,,,,,,,,,,,,,,,,,,,,,,,,,,,,,,,,,,,,,,,6,343.07506893668324,None,['6'],0,[2.385382271837443],343.07506893668324,None,343.07506893668324,None,"[2.5254938397556543, 2.8553301552310586, 2.0439505064859986, 2.2903848458081484, 1.5810680058784783, 2.200144572649151, 2.1148458709940314, 1.4854753627441823, 2.317464050836861, 2.1194348260760307, 4.279284822288901, 2.4769850559532642, 2.1143708964809775, 3.580165659543127, 2.385382271837443]",343.07506893668324,None,345.972365424037,None,,,,,,,,,,,,,,,,,,,,,,,,,,,,,,,,,,,,,,,,,,,,,,,,,,,,,,,,,,,,,,,,,,,,,,,,,,,,,,,,,,,,,,,,,,,Pilot4,001,2019_Nov_19_1109,test_final,3.2.4,59.98320608272943,
,,,,,,,,,,,,0,0,0,0,,,,,,,,,,,,,,,,,,,,,,,,,,,,,,,,,,,,,,,,,,,,,,,,,,,,,,,,,,,,,,,,,,,,,1.0,36.36978074256331,2.4246520495042203,7.0787609056099186,0.6869624398082678,4.197015144209551,347.52083647763357,None,space,1.597178712952882,347.52083647763357,None,,,,,,,,,,,,,,,,,,,,,,,,,,,,,,,,,,,,,,,,,,,,,,,,,,,,,,,,,,,,,,,,,,,,,,,,,,,,,,,Pilot4,001,2019_Nov_19_1109,test_final,3.2.4,59.98320608272943,
,,,,,,,,,,,,,,,,,,,,,,,,,,,,,,,,,,,,,,,,,,,,,,,,,,,,,,,,,,,,,,,,,,,,,,,,,,,,,,,,,,,,,,,,,,,,,,,,349.6354062501341,None,space,10.077125397510827,349.6354062501341,None,,,,,,,,,,,,,,,,,,,,,,,,,,,,,,,,,,,,,,,,,,,,,,,,,,,,,,,,,,,,,,,,,,,,,,,,,Pilot4,001,2019_Nov_19_1109,test_final,3.2.4,59.98320608272943,
Practice,13,(3x8) - 19 ,5,,,,,,,,,,,,,,,,,0,0,0,0,0,0,0,0,0,0,0,12,,,,,,,,,,,,,,,,,,,,,,,,,,,,,,,,,,,,,,5,,,,,,,,,,,,,,,,,,,,,,,,,,,,,,,,,360.27343737892807,None,['5'],0,[1.7953073759563267],360.27343737892807,None,360.27343737892807,None,360.27343737892807,None,1,362.1568975369446,None,362.1568975369446,None,,,,,,,,,,,,,,,,,,,,,,,,,,,,,,,,,,,,,,,,,,,,,,,,,,,,,,,,,Pilot4,001,2019_Nov_19_1109,test_final,3.2.4,59.98320608272943,
,,,,,,,,,,,,,,,,,,,,0,0,0,0,0,0,0,0,,,,,,,,,,,,,,,,,,,,,,,,,,,,,,,,,,,,,,,,,,,,,,,,,,,,,,,,,,,,,,,,,,,,,,,,,,,,,,,,,,,,,,,,,,,363.4699581093155,None,,,,,,,,,,,,,,,,,,,,,,,,,,,,,,,,,,,,,,,,,,,,,,,,,,,,,,,Pilot4,001,2019_Nov_19_1109,test_final,3.2.4,59.98320608272943,
Practice,2,(1/1) - 1,0,,,,,,,,,,,,,,,,,0,0,0,0,1,0,1,0,0,0,0,1,,,,,,,,,,,,,,,,,,,,,,,,,,,,,,,,,,,,,,0,,,,,,,,,,,,,,,,,,,,,,,,,,,,,,,,,364.7686576587148,None,['0'],0,[2.557917656842619],364.7686576587148,None,364.7686576587148,None,364.7686576587148,None,1,367.4072230020538,None,367.4072230020538,None,,,,,,,,,,,,,,,,,,,,,,,,,,,,,,,,,,,,,,,,,,,,,,,,,,,,,,,,,Pilot4,001,2019_Nov_19_1109,test_final,3.2.4,59.98320608272943,
,,,,,,,,,,,,,,,,,,,,0,0,0,0,1,0,1,0,,,,,,,,,,,,,,,,,,,,,,,,,,,,,,,,,,,,,,,,,,,,,,,,,,,,,,,,,,,,,,,,,,,,,,,,,,,,,,,,,,,,,,,,,,,368.7307915543206,None,,,,,,,,,,,,,,,,,,,,,,,,,,,,,,,,,,,,,,,,,,,,,,,,,,,,,,,Pilot4,001,2019_Nov_19_1109,test_final,3.2.4,59.98320608272943,
,,,,,,,,,,,,,,,,,,,,0,0,0,0,,,,,,,,,,,,,,,,,,,,,,,,,,,,,,,,,,,,,,,,,,,,,,,,,,,,,,,,,,,,,,,,,,,,,,,,,,,,,,,,,,,,,,,,,,,,,,,,,zk,"['z', 'k']",0,"[0.9670871035195887, 1.1286455285735428, 1.5041513573378325]",370.02964131813496,None,370.02964131813496,None,370.02964131813496,None,1,372.0775009347126,None,,,,,,,,,,,,,,,,,,,,,,,,,,,,,,,,,,,,,,,,,,Pilot4,001,2019_Nov_19_1109,test_final,3.2.4,59.98320608272943,
Practice,8,(3/3) + 5,6,,,,,,,,,,,,,,,,,1,0,1,0,0,0,0,0,0,0,0,7,,,,,,,,,,,,,,,,,,,,,,,,,,,,,,,,,,,,,,6,,,,,,,,,,,,,,,,,,,,,,,,,,,,,,,,,373.6088411603123,None,['6'],0,[1.7619826230220497],373.6088411603123,None,373.6088411603123,None,373.6088411603123,None,1,375.45285231713206,None,375.45285231713206,None,,,,,,,,,,,,,,,,,,,,,,,,,,,,,,,,,,,,,,,,,,,,,,,,,,,,,,,,,Pilot4,001,2019_Nov_19_1109,test_final,3.2.4,59.98320608272943,
,,,,,,,,,,,,,,,,,,,,1,0,1,0,0,0,0,0,,,,,,,,,,,,,,,,,,,,,,,,,,,,,,,,,,,,,,,,,,,,,,,,,,,,,,,,,,,,,,,,,,,,,,,,,,,,,,,,,,,,,,,,,,,376.75578397279605,None,,,,,,,,,,,,,,,,,,,,,,,,,,,,,,,,,,,,,,,,,,,,,,,,,,,,,,,Pilot4,001,2019_Nov_19_1109,test_final,3.2.4,59.98320608272943,
Practice,13,(3x8) - 19 ,5,,,,,,,,,,,,,,,,,1,0,1,0,1,0,1,0,0,0,0,12,,,,,,,,,,,,,,,,,,,,,,,,,,,,,,,,,,,,,,5,,,,,,,,,,,,,,,,,,,,,,,,,,,,,,,,,378.087332948111,None,['5'],0,[2.9735202435404062],378.087332948111,None,378.087332948111,None,378.087332948111,None,1,381.1440792120993,None,381.1440792120993,None,,,,,,,,,,,,,,,,,,,,,,,,,,,,,,,,,,,,,,,,,,,,,,,,,,,,,,,,,Pilot4,001,2019_Nov_19_1109,test_final,3.2.4,59.98320608272943,
,,,,,,,,,,,,,,,,,,,,1,0,1,0,1,0,1,0,,,,,,,,,,,,,,,,,,,,,,,,,,,,,,,,,,,,,,,,,,,,,,,,,,,,,,,,,,,,,,,,,,,,,,,,,,,,,,,,,,,,,,,,,,,382.4661399750039,None,,,,,,,,,,,,,,,,,,,,,,,,,,,,,,,,,,,,,,,,,,,,,,,,,,,,,,,Pilot4,001,2019_Nov_19_1109,test_final,3.2.4,59.98320608272943,
,,,,,,,,,,,,,,,,,,,,1,0,1,0,,,,,,,,,,,,,,,,,,,,,,,,,,,,,,,,,,,,,,,,,,,,,,,,,,,,,,,,,,,,,,,,,,,,,,,,,,,,,,,,,,,,,,,,,,,,,,,,,hl,"['h', 'l']",0,"[0.5936074103228748, 0.7742617968469858, 1.1029136721044779]",383.7476854235865,None,383.7476854235865,None,383.7476854235865,None,1,385.37958066817373,None,,,,,,,,,,,,,,,,,,,,,,,,,,,,,,,,,,,,,,,,,,Pilot4,001,2019_Nov_19_1109,test_final,3.2.4,59.98320608272943,
Practice,10,(8/4) + 3,5,,,,,,,,,,,,,,,,,2,0,2,0,0,0,0,0,0,0,0,9,,,,,,,,,,,,,,,,,,,,,,,,,,,,,,,,,,,,,,5,,,,,,,,,,,,,,,,,,,,,,,,,,,,,,,,,386.9271931000985,None,['5'],0,[3.1268813870847225],386.9271931000985,None,386.9271931000985,None,386.9271931000985,None,1,390.1323712775484,None,390.1323712775484,None,,,,,,,,,,,,,,,,,,,,,,,,,,,,,,,,,,,,,,,,,,,,,,,,,,,,,,,,,Pilot4,001,2019_Nov_19_1109,test_final,3.2.4,59.98320608272943,
,,,,,,,,,,,,,,,,,,,,2,0,2,0,0,0,0,0,,,,,,,,,,,,,,,,,,,,,,,,,,,,,,,,,,,,,,,,,,,,,,,,,,,,,,,,,,,,,,,,,,,,,,,,,,,,,,,,,,,,,,,,,,,391.45627305237576,None,,,,,,,,,,,,,,,,,,,,,,,,,,,,,,,,,,,,,,,,,,,,,,,,,,,,,,,Pilot4,001,2019_Nov_19_1109,test_final,3.2.4,59.98320608272943,
Practice,5,(3/3) + 2,3,,,,,,,,,,,,,,,,,2,0,2,0,1,0,1,0,0,0,0,4,,,,,,,,,,,,,,,,,,,,,,,,,,,,,,,,,,,,,,3,,,,,,,,,,,,,,,,,,,,,,,,,,,,,,,,,392.75427054194734,None,['3'],0,[1.4188706390559673],392.75427054194734,None,392.75427054194734,None,392.75427054194734,None,1,394.2498899837956,None,394.2498899837956,None,,,,,,,,,,,,,,,,,,,,,,,,,,,,,,,,,,,,,,,,,,,,,,,,,,,,,,,,,Pilot4,001,2019_Nov_19_1109,test_final,3.2.4,59.98320608272943,
,,,,,,,,,,,,,,,,,,,,2,0,2,0,1,0,1,0,,,,,,,,,,,,,,,,,,,,,,,,,,,,,,,,,,,,,,,,,,,,,,,,,,,,,,,,,,,,,,,,,,,,,,,,,,,,,,,,,,,,,,,,,,,395.5679524252191,None,,,,,,,,,,,,,,,,,,,,,,,,,,,,,,,,,,,,,,,,,,,,,,,,,,,,,,,Pilot4,001,2019_Nov_19_1109,test_final,3.2.4,59.98320608272943,
,,,,,,,,,,,,,,,,,,,,2,0,2,0,,,,,,,,,,,,,,,,,,,,,,,,,,,,,,,,,,,,,,,,,,,,,,,,,,,,,,,,,,,,,,,,,,,,,,,,,,,,,,,,,,,,,,,,,,,,,,,,,vh,"['v', 'h']",0,"[0.5284554678946733, 0.7092843996360898, 1.1173060783185065]",396.8499488704838,None,396.8499488704838,None,396.8499488704838,None,1,398.4984929161146,None,,,,,,,,,,,,,,,,,,,,,,,,,,,,,,,,,,,,,,,,,,Pilot4,001,2019_Nov_19_1109,test_final,3.2.4,59.98320608272943,
,,,,,,,,,,,,,,,,,,,,,,,,,,,,,,,,,,,,,,,,,,,,,,,,,,,,,,,,,,,,,,,,,,,,,,,,,,,,,,,,,,,,,,,,,,,,,,,,,,,,,,,,,,,,,,,,,,,,,,,,,,,,,,,,,,,,,400.0135038117878,None,space,4.8352130157873034,400.0135038117878,None,,,,,,,,,,,,,,,,,,,,,,,,,,,,,,,,,,,,Pilot4,001,2019_Nov_19_1109,test_final,3.2.4,59.98320608272943,
Practice,2,(1/1) - 1,0,,,,,,,,,,,,,,,,,,,,,,,,,,,,,0,0,0,0,0,0,0,0,0,0,0,1,,,,,,,,,,,,,,,,,,,,,,,,,,0,,,,,,,,,,,,,,,,,,,,,,,,,,,,,,,,,,,,,,,,,,,,1,,,,,,,,,,,,,,,,,,,,,,,,,,405.4067427380942,None,['0'],0,[1.5263877231627703],405.4067427380942,None,405.4067427380942,None,405.4067427380942,None,407.01610189210624,None,407.01610189210624,None,,,,,,,,,,,,,,,,,,,,,Pilot4,001,2019_Nov_19_1109,test_final,3.2.4,59.98320608272943,
,,,,,,,,,,,,,,,,,,,,,,,,,,,,,,,,0,0,0,0,0,0,0,0,,,,,,,,,,,,,,,,,,,,,,,,,,,,,,,,,,,,,,,,,,,,,,,,,,,,,,,,,,,,,,,,,,,,,,,,,,,,,,,,,,,,,,,,,,,,,,,,,,,,,,,,,,,,,,,,,,,408.3373544574715,None,,,,,,,,,,,,,,,,,,,Pilot4,001,2019_Nov_19_1109,test_final,3.2.4,59.98320608272943,
Practice,7,(4x6) - 17,7,,,,,,,,,,,,,,,,,,,,,,,,,,,,,0,0,0,0,1,0,1,0,0,0,0,6,,,,,,,,,,,,,,,,,,,,,,,,,,7,,,,,,,,,,,,,,,,,,,,,,,,,,,,,,,,,,,,,,,,,,,,1,,,,,,,,,,,,,,,,,,,,,,,,,,409.6362458304502,None,['7'],0,[2.9796737590804696],409.6362458304502,None,409.6362458304502,None,409.6362458304502,None,412.6919504646212,None,412.6919504646212,None,,,,,,,,,,,,,,,,,,,,,Pilot4,001,2019_Nov_19_1109,test_final,3.2.4,59.98320608272943,
,,,,,,,,,,,,,,,,,,,,,,,,,,,,,,,,0,0,0,0,1,0,1,0,,,,,,,,,,,,,,,,,,,,,,,,,,,,,,,,,,,,,,,,,,,,,,,,,,,,,,,,,,,,,,,,,,,,,,,,,,,,,,,,,,,,,,,,,,,,,,,,,,,,,,,,,,,,,,,,,,,413.9963817996904,None,,,,,,,,,,,,,,,,,,,Pilot4,001,2019_Nov_19_1109,test_final,3.2.4,59.98320608272943,
,,,,,,,,,,,,,,,,,,,,,,,,,,,,,,,,0,0,0,0,,,,,,,,,,,,,,,,,,,,,,,,,,,,,,,,,,,,,,,,,,,,,,,,,,,,,,,,,,,,,,,,,,,,,,,,,,,,,,,,,,,,,,,,,,,,,,,,,,,,,,,,,,,,,,,,,,,,,,,,,jv,"['j', 'v']",0,"[0.7926645134575665, 1.0007955031469464, 1.5829026708379388]",415.2948937565088,None,415.2948937565088,None,1,JV,415.2948937565088,None,,,,,,,Pilot4,001,2019_Nov_19_1109,test_final,3.2.4,59.98320608272943,
Practice,12,(8/2) + 4,8,,,,,,,,,,,,,,,,,,,,,,,,,,,,,1,0,1,0,0,0,0,0,0,0,0,11,,,,,,,,,,,,,,,,,,,,,,,,,,8,,,,,,,,,,,,,,,,,,,,,,,,,,,,,,,,,,,,,,,,,,,,1,,,,,,,,,,,,,,,,,,,,,,,,,,417.4267484503798,None,['8'],0,[2.346672003157437],417.4267484503798,None,417.4267484503798,None,417.4267484503798,None,419.85036354791373,None,419.85036354791373,None,,,,,,,,,,,,,,,,,,,,,Pilot4,001,2019_Nov_19_1109,test_final,3.2.4,59.98320608272943,
,,,,,,,,,,,,,,,,,,,,,,,,,,,,,,,,1,0,1,0,0,0,0,0,,,,,,,,,,,,,,,,,,,,,,,,,,,,,,,,,,,,,,,,,,,,,,,,,,,,,,,,,,,,,,,,,,,,,,,,,,,,,,,,,,,,,,,,,,,,,,,,,,,,,,,,,,,,,,,,,,,421.15708089759573,None,,,,,,,,,,,,,,,,,,,Pilot4,001,2019_Nov_19_1109,test_final,3.2.4,59.98320608272943,
Practice,5,(3/3) + 2,3,,,,,,,,,,,,,,,,,,,,,,,,,,,,,1,0,1,0,1,0,1,0,0,0,0,4,,,,,,,,,,,,,,,,,,,,,,,,,,3,,,,,,,,,,,,,,,,,,,,,,,,,,,,,,,,,,,,,,,,,,,,1,,,,,,,,,,,,,,,,,,,,,,,,,,422.48751842416823,None,['3'],0,[1.7685896032489836],422.48751842416823,None,422.48751842416823,None,422.48751842416823,None,424.3407579148188,None,424.3407579148188,None,,,,,,,,,,,,,,,,,,,,,Pilot4,001,2019_Nov_19_1109,test_final,3.2.4,59.98320608272943,
,,,,,,,,,,,,,,,,,,,,,,,,,,,,,,,,1,0,1,0,1,0,1,0,,,,,,,,,,,,,,,,,,,,,,,,,,,,,,,,,,,,,,,,,,,,,,,,,,,,,,,,,,,,,,,,,,,,,,,,,,,,,,,,,,,,,,,,,,,,,,,,,,,,,,,,,,,,,,,,,,,425.66857232525945,None,,,,,,,,,,,,,,,,,,,Pilot4,001,2019_Nov_19_1109,test_final,3.2.4,59.98320608272943,
Practice,11,(5x3) - 7,8,,,,,,,,,,,,,,,,,,,,,,,,,,,,,1,0,1,0,2,0,2,0,0,0,0,10,,,,,,,,,,,,,,,,,,,,,,,,,,8,,,,,,,,,,,,,,,,,,,,,,,,,,,,,,,,,,,,,,,,,,,,1,,,,,,,,,,,,,,,,,,,,,,,,,,426.96577325323597,None,['8'],0,[2.2794953347183764],426.96577325323597,None,426.96577325323597,None,426.96577325323597,None,429.32028815848753,None,429.32028815848753,None,,,,,,,,,,,,,,,,,,,,,Pilot4,001,2019_Nov_19_1109,test_final,3.2.4,59.98320608272943,
,,,,,,,,,,,,,,,,,,,,,,,,,,,,,,,,1,0,1,0,2,0,2,0,,,,,,,,,,,,,,,,,,,,,,,,,,,,,,,,,,,,,,,,,,,,,,,,,,,,,,,,,,,,,,,,,,,,,,,,,,,,,,,,,,,,,,,,,,,,,,,,,,,,,,,,,,,,,,,,,,,430.6462520365603,None,,,,,,,,,,,,,,,,,,,Pilot4,001,2019_Nov_19_1109,test_final,3.2.4,59.98320608272943,
,,,,,,,,,,,,,,,,,,,,,,,,,,,,,,,,1,0,1,0,,,,,,,,,,,,,,,,,,,,,,,,,,,,,,,,,,,,,,,,,,,,,,,,,,,,,,,,,,,,,,,,,,,,,,,,,,,,,,,,,,,,,,,,,,,,,,,,,,,,,,,,,,,,,,,,,,,,,,,,,nrx,"['n', 'r', 'x']",0,"[0.560375748667866, 0.7142971996217966, 0.9740530480630696, 1.3267043735831976]",431.9113870533183,None,431.9113870533183,None,1,NRX,431.9113870533183,None,,,,,,,Pilot4,001,2019_Nov_19_1109,test_final,3.2.4,59.98320608272943,
Practice,6,(2x6) - 8,4,,,,,,,,,,,,,,,,,,,,,,,,,,,,,2,0,2,0,0,0,0,0,0,0,0,5,,,,,,,,,,,,,,,,,,,,,,,,,,4,,,,,,,,,,,,,,,,,,,,,,,,,,,,,,,,,,,,,,,,,,,,1,,,,,,,,,,,,,,,,,,,,,,,,,,433.7929095821455,None,['4'],0,[1.6991896866820753],433.7929095821455,None,433.7929095821455,None,433.7929095821455,None,435.5821716962382,None,435.5821716962382,None,,,,,,,,,,,,,,,,,,,,,Pilot4,001,2019_Nov_19_1109,test_final,3.2.4,59.98320608272943,
,,,,,,,,,,,,,,,,,,,,,,,,,,,,,,,,2,0,2,0,0,0,0,0,,,,,,,,,,,,,,,,,,,,,,,,,,,,,,,,,,,,,,,,,,,,,,,,,,,,,,,,,,,,,,,,,,,,,,,,,,,,,,,,,,,,,,,,,,,,,,,,,,,,,,,,,,,,,,,,,,,436.905322750099,None,,,,,,,,,,,,,,,,,,,Pilot4,001,2019_Nov_19_1109,test_final,3.2.4,59.98320608272943,
Practice,14,(6/3) + 4 ,6,,,,,,,,,,,,,,,,,,,,,,,,,,,,,2,0,2,0,1,0,1,0,0,0,0,13,,,,,,,,,,,,,,,,,,,,,,,,,,6,,,,,,,,,,,,,,,,,,,,,,,,,,,,,,,,,,,,,,,,,,,,1,,,,,,,,,,,,,,,,,,,,,,,,,,438.20485094888136,None,['6'],0,[3.4591817879118025],438.20485094888136,None,438.20485094888136,None,438.20485094888136,None,441.7338557941839,None,441.7338557941839,None,,,,,,,,,,,,,,,,,,,,,Pilot4,001,2019_Nov_19_1109,test_final,3.2.4,59.98320608272943,
,,,,,,,,,,,,,,,,,,,,,,,,,,,,,,,,2,0,2,0,1,0,1,0,,,,,,,,,,,,,,,,,,,,,,,,,,,,,,,,,,,,,,,,,,,,,,,,,,,,,,,,,,,,,,,,,,,,,,,,,,,,,,,,,,,,,,,,,,,,,,,,,,,,,,,,,,,,,,,,,,,443.04919850220904,None,,,,,,,,,,,,,,,,,,,Pilot4,001,2019_Nov_19_1109,test_final,3.2.4,59.98320608272943,
Practice,6,(2x6) - 8,4,,,,,,,,,,,,,,,,,,,,,,,,,,,,,2,0,2,0,2,0,2,0,0,0,0,5,,,,,,,,,,,,,,,,,,,,,,,,,,4,,,,,,,,,,,,,,,,,,,,,,,,,,,,,,,,,,,,,,,,,,,,1,,,,,,,,,,,,,,,,,,,,,,,,,,444.3640468418598,None,['4'],0,[1.6378812668845057],444.3640468418598,None,444.3640468418598,None,444.3640468418598,None,446.0877426886,None,446.0877426886,None,,,,,,,,,,,,,,,,,,,,,Pilot4,001,2019_Nov_19_1109,test_final,3.2.4,59.98320608272943,
,,,,,,,,,,,,,,,,,,,,,,,,,,,,,,,,2,0,2,0,2,0,2,0,,,,,,,,,,,,,,,,,,,,,,,,,,,,,,,,,,,,,,,,,,,,,,,,,,,,,,,,,,,,,,,,,,,,,,,,,,,,,,,,,,,,,,,,,,,,,,,,,,,,,,,,,,,,,,,,,,,447.4115048274398,None,,,,,,,,,,,,,,,,,,,Pilot4,001,2019_Nov_19_1109,test_final,3.2.4,59.98320608272943,
Practice,6,(2x6) - 8,4,,,,,,,,,,,,,,,,,,,,,,,,,,,,,2,0,2,0,3,0,3,0,0,0,0,5,,,,,,,,,,,,,,,,,,,,,,,,,,4,,,,,,,,,,,,,,,,,,,,,,,,,,,,,,,,,,,,,,,,,,,,1,,,,,,,,,,,,,,,,,,,,,,,,,,448.7090664827265,None,['4'],0,[1.740815743803978],448.7090664827265,None,448.7090664827265,None,448.7090664827265,None,450.52892092242837,None,450.52892092242837,None,,,,,,,,,,,,,,,,,,,,,Pilot4,001,2019_Nov_19_1109,test_final,3.2.4,59.98320608272943,
,,,,,,,,,,,,,,,,,,,,,,,,,,,,,,,,2,0,2,0,3,0,3,0,,,,,,,,,,,,,,,,,,,,,,,,,,,,,,,,,,,,,,,,,,,,,,,,,,,,,,,,,,,,,,,,,,,,,,,,,,,,,,,,,,,,,,,,,,,,,,,,,,,,,,,,,,,,,,,,,,,451.8558382759802,None,,,,,,,,,,,,,,,,,,,Pilot4,001,2019_Nov_19_1109,test_final,3.2.4,59.98320608272943,
,,,,,,,,,,,,,,,,,,,,,,,,,,,,,,,,2,0,2,0,,,,,,,,,,,,,,,,,,,,,,,,,,,,,,,,,,,,,,,,,,,,,,,,,,,,,,,,,,,,,,,,,,,,,,,,,,,,,,,,,,,,,,,,,,,,,,,,,,,,,,,,,,,,,,,,,,,,,,,,,srqj,"['s', 'r', 'q', 'j']",0,"[0.7972414791584015, 0.9324308694340289, 1.135948222130537, 1.2901595239527524, 1.5852267681621015]",453.1382705559954,None,453.1382705559954,None,1,SRQJ,453.1382705559954,None,,,,,,,Pilot4,001,2019_Nov_19_1109,test_final,3.2.4,59.98320608272943,
Practice,2,(1/1) - 1,0,,,,,,,,,,,,,,,,,,,,,,,,,,,,,3,0,3,0,0,0,0,0,0,0,0,1,,,,,,,,,,,,,,,,,,,,,,,,,,0,,,,,,,,,,,,,,,,,,,,,,,,,,,,,,,,,,,,,,,,,,,,1,,,,,,,,,,,,,,,,,,,,,,,,,,455.2853180957027,None,['0'],0,[2.0279960087500513],455.2853180957027,None,455.2853180957027,None,455.2853180957027,None,457.3931835652329,None,457.3931835652329,None,,,,,,,,,,,,,,,,,,,,,Pilot4,001,2019_Nov_19_1109,test_final,3.2.4,59.98320608272943,
,,,,,,,,,,,,,,,,,,,,,,,,,,,,,,,,3,0,3,0,0,0,0,0,,,,,,,,,,,,,,,,,,,,,,,,,,,,,,,,,,,,,,,,,,,,,,,,,,,,,,,,,,,,,,,,,,,,,,,,,,,,,,,,,,,,,,,,,,,,,,,,,,,,,,,,,,,,,,,,,,,458.6987393950112,None,,,,,,,,,,,,,,,,,,,Pilot4,001,2019_Nov_19_1109,test_final,3.2.4,59.98320608272943,
Practice,13,(3x8) - 19 ,5,,,,,,,,,,,,,,,,,,,,,,,,,,,,,3,0,3,0,1,0,1,0,0,0,0,12,,,,,,,,,,,,,,,,,,,,,,,,,,5,,,,,,,,,,,,,,,,,,,,,,,,,,,,,,,,,,,,,,,,,,,,1,,,,,,,,,,,,,,,,,,,,,,,,,,460.01406976161525,None,['5'],0,[1.9003025451675057],460.01406976161525,None,460.01406976161525,None,460.01406976161525,None,462.00324442703277,None,462.00324442703277,None,,,,,,,,,,,,,,,,,,,,,Pilot4,001,2019_Nov_19_1109,test_final,3.2.4,59.98320608272943,
,,,,,,,,,,,,,,,,,,,,,,,,,,,,,,,,3,0,3,0,1,0,1,0,,,,,,,,,,,,,,,,,,,,,,,,,,,,,,,,,,,,,,,,,,,,,,,,,,,,,,,,,,,,,,,,,,,,,,,,,,,,,,,,,,,,,,,,,,,,,,,,,,,,,,,,,,,,,,,,,,,463.3272548080422,None,,,,,,,,,,,,,,,,,,,Pilot4,001,2019_Nov_19_1109,test_final,3.2.4,59.98320608272943,
Practice,11,(5x3) - 7,8,,,,,,,,,,,,,,,,,,,,,,,,,,,,,3,0,3,0,2,0,2,0,0,0,0,10,,,,,,,,,,,,,,,,,,,,,,,,,,8,,,,,,,,,,,,,,,,,,,,,,,,,,,,,,,,,,,,,,,,,,,,1,,,,,,,,,,,,,,,,,,,,,,,,,,464.62483550421894,None,['8'],0,[1.4169382988475263],464.62483550421894,None,464.62483550421894,None,464.62483550421894,None,466.10722793871537,None,466.10722793871537,None,,,,,,,,,,,,,,,,,,,,,Pilot4,001,2019_Nov_19_1109,test_final,3.2.4,59.98320608272943,
,,,,,,,,,,,,,,,,,,,,,,,,,,,,,,,,3,0,3,0,2,0,2,0,,,,,,,,,,,,,,,,,,,,,,,,,,,,,,,,,,,,,,,,,,,,,,,,,,,,,,,,,,,,,,,,,,,,,,,,,,,,,,,,,,,,,,,,,,,,,,,,,,,,,,,,,,,,,,,,,,,467.43936754669994,None,,,,,,,,,,,,,,,,,,,Pilot4,001,2019_Nov_19_1109,test_final,3.2.4,59.98320608272943,
Practice,5,(3/3) + 2,3,,,,,,,,,,,,,,,,,,,,,,,,,,,,,3,0,3,0,3,0,3,0,0,0,0,4,,,,,,,,,,,,,,,,,,,,,,,,,,3,,,,,,,,,,,,,,,,,,,,,,,,,,,,,,,,,,,,,,,,,,,,1,,,,,,,,,,,,,,,,,,,,,,,,,,468.7377412780188,None,['3'],0,[1.967238375917077],468.7377412780188,None,468.7377412780188,None,468.7377412780188,None,470.7854133024812,None,470.7854133024812,None,,,,,,,,,,,,,,,,,,,,,Pilot4,001,2019_Nov_19_1109,test_final,3.2.4,59.98320608272943,
,,,,,,,,,,,,,,,,,,,,,,,,,,,,,,,,3,0,3,0,3,0,3,0,,,,,,,,,,,,,,,,,,,,,,,,,,,,,,,,,,,,,,,,,,,,,,,,,,,,,,,,,,,,,,,,,,,,,,,,,,,,,,,,,,,,,,,,,,,,,,,,,,,,,,,,,,,,,,,,,,,472.11764176981524,None,,,,,,,,,,,,,,,,,,,Pilot4,001,2019_Nov_19_1109,test_final,3.2.4,59.98320608272943,
Practice,9,(4/2) + 5,7,,,,,,,,,,,,,,,,,,,,,,,,,,,,,3,0,3,0,4,0,4,0,0,0,0,8,,,,,,,,,,,,,,,,,,,,,,,,,,7,,,,,,,,,,,,,,,,,,,,,,,,,,,,,,,,,,,,,,,,,,,,1,,,,,,,,,,,,,,,,,,,,,,,,,,473.4156949725002,None,['7'],0,[1.8058414496481419],473.4156949725002,None,473.4156949725002,None,473.4156949725002,None,475.2973134131171,None,475.2973134131171,None,,,,,,,,,,,,,,,,,,,,,Pilot4,001,2019_Nov_19_1109,test_final,3.2.4,59.98320608272943,
,,,,,,,,,,,,,,,,,,,,,,,,,,,,,,,,3,0,3,0,4,0,4,0,,,,,,,,,,,,,,,,,,,,,,,,,,,,,,,,,,,,,,,,,,,,,,,,,,,,,,,,,,,,,,,,,,,,,,,,,,,,,,,,,,,,,,,,,,,,,,,,,,,,,,,,,,,,,,,,,,,476.61211732262745,None,,,,,,,,,,,,,,,,,,,Pilot4,001,2019_Nov_19_1109,test_final,3.2.4,59.98320608272943,
,,,,,,,,,,,,,,,,,,,,,,,,,,,,,,,,3,0,3,0,,,,,,,,,,,,,,,,,,,,,,,,,,,,,,,,,,,,,,,,,,,,,,,,,,,,,,,,,,,,,,,,,,,,,,,,,,,,,,,,,,,,,,,,,,,,,,,,,,,,,,,,,,,,,,,,,,,,,,,,,jhxsv,"['j', 'h', 'x', 's', 'v']",0,"[0.4132598009891808, 0.6470253248699009, 0.8663116991519928, 1.1496946336701512, 1.5426511140540242, 1.8704708139412105]",477.89411905780435,None,477.89411905780435,None,1,JHXSV,477.89411905780435,None,,,,,,,Pilot4,001,2019_Nov_19_1109,test_final,3.2.4,59.98320608272943,
Practice,1,(1x2) + 1,3,,,,,,,,,,,,,,,,,,,,,,,,,,,,,4,0,4,0,0,0,0,0,0,0,0,0,,,,,,,,,,,,,,,,,,,,,,,,,,3,,,,,,,,,,,,,,,,,,,,,,,,,,,,,,,,,,,,,,,,,,,,1,,,,,,,,,,,,,,,,,,,,,,,,,,480.3081182958558,None,['3'],0,[2.0382716138847172],480.3081182958558,None,480.3081182958558,None,480.3081182958558,None,482.4325916627422,None,482.4325916627422,None,,,,,,,,,,,,,,,,,,,,,Pilot4,001,2019_Nov_19_1109,test_final,3.2.4,59.98320608272943,
,,,,,,,,,,,,,,,,,,,,,,,,,,,,,,,,4,0,4,0,0,0,0,0,,,,,,,,,,,,,,,,,,,,,,,,,,,,,,,,,,,,,,,,,,,,,,,,,,,,,,,,,,,,,,,,,,,,,,,,,,,,,,,,,,,,,,,,,,,,,,,,,,,,,,,,,,,,,,,,,,,483.7547790152021,None,,,,,,,,,,,,,,,,,,,Pilot4,001,2019_Nov_19_1109,test_final,3.2.4,59.98320608272943,
Practice,15,(9/3) - 2,1,,,,,,,,,,,,,,,,,,,,,,,,,,,,,4,0,4,0,1,0,1,0,0,0,0,14,,,,,,,,,,,,,,,,,,,,,,,,,,1,,,,,,,,,,,,,,,,,,,,,,,,,,,,,,,,,,,,,,,,,,,,1,,,,,,,,,,,,,,,,,,,,,,,,,,485.0694066165015,None,['1'],0,[1.463730544783175],485.0694066165015,None,485.0694066165015,None,485.0694066165015,None,486.61304682074115,None,486.61304682074115,None,,,,,,,,,,,,,,,,,,,,,Pilot4,001,2019_Nov_19_1109,test_final,3.2.4,59.98320608272943,
,,,,,,,,,,,,,,,,,,,,,,,,,,,,,,,,4,0,4,0,1,0,1,0,,,,,,,,,,,,,,,,,,,,,,,,,,,,,,,,,,,,,,,,,,,,,,,,,,,,,,,,,,,,,,,,,,,,,,,,,,,,,,,,,,,,,,,,,,,,,,,,,,,,,,,,,,,,,,,,,,,487.91688611218706,None,,,,,,,,,,,,,,,,,,,Pilot4,001,2019_Nov_19_1109,test_final,3.2.4,59.98320608272943,
Practice,9,(4/2) + 5,7,,,,,,,,,,,,,,,,,,,,,,,,,,,,,4,0,4,0,2,0,2,0,0,0,0,8,,,,,,,,,,,,,,,,,,,,,,,,,,7,,,,,,,,,,,,,,,,,,,,,,,,,,,,,,,,,,,,,,,,,,,,1,,,,,,,,,,,,,,,,,,,,,,,,,,489.2482443214394,None,['7'],0,[1.8475101729854941],489.2482443214394,None,489.2482443214394,None,489.2482443214394,None,491.17151984898373,None,491.17151984898373,None,,,,,,,,,,,,,,,,,,,,,Pilot4,001,2019_Nov_19_1109,test_final,3.2.4,59.98320608272943,
,,,,,,,,,,,,,,,,,,,,,,,,,,,,,,,,4,0,4,0,2,0,2,0,,,,,,,,,,,,,,,,,,,,,,,,,,,,,,,,,,,,,,,,,,,,,,,,,,,,,,,,,,,,,,,,,,,,,,,,,,,,,,,,,,,,,,,,,,,,,,,,,,,,,,,,,,,,,,,,,,,492.47828021785244,None,,,,,,,,,,,,,,,,,,,Pilot4,001,2019_Nov_19_1109,test_final,3.2.4,59.98320608272943,
Practice,14,(6/3) + 4 ,6,,,,,,,,,,,,,,,,,,,,,,,,,,,,,4,0,4,0,3,0,3,0,0,0,0,13,,,,,,,,,,,,,,,,,,,,,,,,,,6,,,,,,,,,,,,,,,,,,,,,,,,,,,,,,,,,,,,,,,,,,,,1,,,,,,,,,,,,,,,,,,,,,,,,,,493.80958341853693,None,['6'],0,[2.5329079595394433],493.80958341853693,None,493.80958341853693,None,493.80958341853693,None,496.4223738866858,None,496.4223738866858,None,,,,,,,,,,,,,,,,,,,,,Pilot4,001,2019_Nov_19_1109,test_final,3.2.4,59.98320608272943,
,,,,,,,,,,,,,,,,,,,,,,,,,,,,,,,,4,0,4,0,3,0,3,0,,,,,,,,,,,,,,,,,,,,,,,,,,,,,,,,,,,,,,,,,,,,,,,,,,,,,,,,,,,,,,,,,,,,,,,,,,,,,,,,,,,,,,,,,,,,,,,,,,,,,,,,,,,,,,,,,,,497.7227289718576,None,,,,,,,,,,,,,,,,,,,Pilot4,001,2019_Nov_19_1109,test_final,3.2.4,59.98320608272943,
Practice,6,(2x6) - 8,4,,,,,,,,,,,,,,,,,,,,,,,,,,,,,4,0,4,0,4,0,4,0,0,0,0,5,,,,,,,,,,,,,,,,,,,,,,,,,,4,,,,,,,,,,,,,,,,,,,,,,,,,,,,,,,,,,,,,,,,,,,,1,,,,,,,,,,,,,,,,,,,,,,,,,,499.05406743474305,None,['4'],0,[2.151075833942741],499.05406743474305,None,499.05406743474305,None,499.05406743474305,None,501.2925566127524,None,501.2925566127524,None,,,,,,,,,,,,,,,,,,,,,Pilot4,001,2019_Nov_19_1109,test_final,3.2.4,59.98320608272943,
,,,,,,,,,,,,,,,,,,,,,,,,,,,,,,,,4,0,4,0,4,0,4,0,,,,,,,,,,,,,,,,,,,,,,,,,,,,,,,,,,,,,,,,,,,,,,,,,,,,,,,,,,,,,,,,,,,,,,,,,,,,,,,,,,,,,,,,,,,,,,,,,,,,,,,,,,,,,,,,,,,502.6169421779923,None,,,,,,,,,,,,,,,,,,,Pilot4,001,2019_Nov_19_1109,test_final,3.2.4,59.98320608272943,
Practice,4,(4x4) - 14,2,,,,,,,,,,,,,,,,,,,,,,,,,,,,,4,0,4,0,5,0,5,0,0,0,0,3,,,,,,,,,,,,,,,,,,,,,,,,,,2,,,,,,,,,,,,,,,,,,,,,,,,,,,,,,,,,,,,,,,,,,,,1,,,,,,,,,,,,,,,,,,,,,,,,,,503.915084592998,None,['2'],0,[1.2505839332006872],503.915084592998,None,503.915084592998,None,503.915084592998,None,505.232647376135,None,505.232647376135,None,,,,,,,,,,,,,,,,,,,,,Pilot4,001,2019_Nov_19_1109,test_final,3.2.4,59.98320608272943,
,,,,,,,,,,,,,,,,,,,,,,,,,,,,,,,,4,0,4,0,5,0,5,0,,,,,,,,,,,,,,,,,,,,,,,,,,,,,,,,,,,,,,,,,,,,,,,,,,,,,,,,,,,,,,,,,,,,,,,,,,,,,,,,,,,,,,,,,,,,,,,,,,,,,,,,,,,,,,,,,,,506.5463567636907,None,,,,,,,,,,,,,,,,,,,Pilot4,001,2019_Nov_19_1109,test_final,3.2.4,59.98320608272943,
,,,,,,,,,,,,,,,,,,,,,,,,,,,,,,,,4,0,4,0,,,,,,,,,,,,,,,,,,,,,,,,,,,,,,,,,,,,,,,,,,,,,,,,,,,,,,,,,,,,,,,,,,,,,,,,,,,,,,,,,,,,,,,,,,,,,,,,,,,,,,,,,,,,,,,,,,,,,,,,,tzkjhx,"['t', 'z', 'k', 'j', 'h', 'x']",0,"[0.5575555195100605, 0.7949381866492331, 1.5484530702233315, 1.8136748308315873, 2.03384803654626, 2.3451042687520385, 2.6108799907378852, 3.013522148132324, 3.7618183037266135]",507.8111850041896,None,507.8111850041896,None,0,TZKJXH,507.8111850041896,None,,,,,,,Pilot4,001,2019_Nov_19_1109,test_final,3.2.4,59.98320608272943,
Practice,7,(4x6) - 17,7,,,,,,,,,,,,,,,,,,,,,,,,,,,,,5,0,5,0,0,0,0,0,0,0,0,6,,,,,,,,,,,,,,,,,,,,,,,,,,7,,,,,,,,,,,,,,,,,,,,,,,,,,,,,,,,,,,,,,,,,,,,1,,,,,,,,,,,,,,,,,,,,,,,,,,512.1224313634448,None,['7'],0,[3.4964318708516657],512.1224313634448,None,512.1224313634448,None,512.1224313634448,None,515.6919067399576,None,515.6919067399576,None,,,,,,,,,,,,,,,,,,,,,Pilot4,001,2019_Nov_19_1109,test_final,3.2.4,59.98320608272943,
,,,,,,,,,,,,,,,,,,,,,,,,,,,,,,,,5,0,5,0,0,0,0,0,,,,,,,,,,,,,,,,,,,,,,,,,,,,,,,,,,,,,,,,,,,,,,,,,,,,,,,,,,,,,,,,,,,,,,,,,,,,,,,,,,,,,,,,,,,,,,,,,,,,,,,,,,,,,,,,,,,517.018181273248,None,,,,,,,,,,,,,,,,,,,Pilot4,001,2019_Nov_19_1109,test_final,3.2.4,59.98320608272943,
Practice,14,(6/3) + 4 ,6,,,,,,,,,,,,,,,,,,,,,,,,,,,,,5,0,5,0,1,0,1,0,0,0,0,13,,,,,,,,,,,,,,,,,,,,,,,,,,6,,,,,,,,,,,,,,,,,,,,,,,,,,,,,,,,,,,,,,,,,,,,1,,,,,,,,,,,,,,,,,,,,,,,,,,518.3331865272485,None,['6'],0,[3.1020765602588654],518.3331865272485,None,518.3331865272485,None,518.3331865272485,None,521.5211873315275,None,521.5211873315275,None,,,,,,,,,,,,,,,,,,,,,Pilot4,001,2019_Nov_19_1109,test_final,3.2.4,59.98320608272943,
,,,,,,,,,,,,,,,,,,,,,,,,,,,,,,,,5,0,5,0,1,0,1,0,,,,,,,,,,,,,,,,,,,,,,,,,,,,,,,,,,,,,,,,,,,,,,,,,,,,,,,,,,,,,,,,,,,,,,,,,,,,,,,,,,,,,,,,,,,,,,,,,,,,,,,,,,,,,,,,,,,522.8450905168429,None,,,,,,,,,,,,,,,,,,,Pilot4,001,2019_Nov_19_1109,test_final,3.2.4,59.98320608272943,
Practice,1,(1x2) + 1,3,,,,,,,,,,,,,,,,,,,,,,,,,,,,,5,0,5,0,2,0,2,0,0,0,0,0,,,,,,,,,,,,,,,,,,,,,,,,,,3,,,,,,,,,,,,,,,,,,,,,,,,,,,,,,,,,,,,,,,,,,,,1,,,,,,,,,,,,,,,,,,,,,,,,,,524.1603397815488,None,['3'],0,[1.4218329726718366],524.1603397815488,None,524.1603397815488,None,524.1603397815488,None,525.6709613041021,None,525.6709613041021,None,,,,,,,,,,,,,,,,,,,,,Pilot4,001,2019_Nov_19_1109,test_final,3.2.4,59.98320608272943,
,,,,,,,,,,,,,,,,,,,,,,,,,,,,,,,,5,0,5,0,2,0,2,0,,,,,,,,,,,,,,,,,,,,,,,,,,,,,,,,,,,,,,,,,,,,,,,,,,,,,,,,,,,,,,,,,,,,,,,,,,,,,,,,,,,,,,,,,,,,,,,,,,,,,,,,,,,,,,,,,,,526.9903266644105,None,,,,,,,,,,,,,,,,,,,Pilot4,001,2019_Nov_19_1109,test_final,3.2.4,59.98320608272943,
Practice,4,(4x4) - 14,2,,,,,,,,,,,,,,,,,,,,,,,,,,,,,5,0,5,0,3,0,3,0,0,0,0,3,,,,,,,,,,,,,,,,,,,,,,,,,,2,,,,,,,,,,,,,,,,,,,,,,,,,,,,,,,,,,,,,,,,,,,,1,,,,,,,,,,,,,,,,,,,,,,,,,,528.3386330460198,None,['2'],0,[1.169529679697007],528.3386330460198,None,528.3386330460198,None,528.3386330460198,None,529.5970105151646,None,529.5970105151646,None,,,,,,,,,,,,,,,,,,,,,Pilot4,001,2019_Nov_19_1109,test_final,3.2.4,59.98320608272943,
,,,,,,,,,,,,,,,,,,,,,,,,,,,,,,,,5,0,5,0,3,0,3,0,,,,,,,,,,,,,,,,,,,,,,,,,,,,,,,,,,,,,,,,,,,,,,,,,,,,,,,,,,,,,,,,,,,,,,,,,,,,,,,,,,,,,,,,,,,,,,,,,,,,,,,,,,,,,,,,,,,530.9186615375802,None,,,,,,,,,,,,,,,,,,,Pilot4,001,2019_Nov_19_1109,test_final,3.2.4,59.98320608272943,
Practice,8,(3/3) + 5,6,,,,,,,,,,,,,,,,,,,,,,,,,,,,,5,0,5,0,4,0,4,0,0,0,0,7,,,,,,,,,,,,,,,,,,,,,,,,,,6,,,,,,,,,,,,,,,,,,,,,,,,,,,,,,,,,,,,,,,,,,,,1,,,,,,,,,,,,,,,,,,,,,,,,,,532.2341601024382,None,['6'],0,[1.439278687350452],532.2341601024382,None,532.2341601024382,None,532.2341601024382,None,533.7589176781476,None,533.7589176781476,None,,,,,,,,,,,,,,,,,,,,,Pilot4,001,2019_Nov_19_1109,test_final,3.2.4,59.98320608272943,
,,,,,,,,,,,,,,,,,,,,,,,,,,,,,,,,5,0,5,0,4,0,4,0,,,,,,,,,,,,,,,,,,,,,,,,,,,,,,,,,,,,,,,,,,,,,,,,,,,,,,,,,,,,,,,,,,,,,,,,,,,,,,,,,,,,,,,,,,,,,,,,,,,,,,,,,,,,,,,,,,,535.0816776803695,None,,,,,,,,,,,,,,,,,,,Pilot4,001,2019_Nov_19_1109,test_final,3.2.4,59.98320608272943,
Practice,11,(5x3) - 7,8,,,,,,,,,,,,,,,,,,,,,,,,,,,,,5,0,5,0,5,0,5,0,0,0,0,10,,,,,,,,,,,,,,,,,,,,,,,,,,8,,,,,,,,,,,,,,,,,,,,,,,,,,,,,,,,,,,,,,,,,,,,1,,,,,,,,,,,,,,,,,,,,,,,,,,536.3962178328075,None,['8'],0,[2.0296124038286507],536.3962178328075,None,536.3962178328075,None,536.3962178328075,None,538.5043661007658,None,538.5043661007658,None,,,,,,,,,,,,,,,,,,,,,Pilot4,001,2019_Nov_19_1109,test_final,3.2.4,59.98320608272943,
,,,,,,,,,,,,,,,,,,,,,,,,,,,,,,,,5,0,5,0,5,0,5,0,,,,,,,,,,,,,,,,,,,,,,,,,,,,,,,,,,,,,,,,,,,,,,,,,,,,,,,,,,,,,,,,,,,,,,,,,,,,,,,,,,,,,,,,,,,,,,,,,,,,,,,,,,,,,,,,,,,539.826421927195,None,,,,,,,,,,,,,,,,,,,Pilot4,001,2019_Nov_19_1109,test_final,3.2.4,59.98320608272943,
,,,,,,,,,,,,,,,,,,,,,,,,,,,,,,,,5,0,5,0,,,,,,,,,,,,,,,,,,,,,,,,,,,,,,,,,,,,,,,,,,,,,,,,,,,,,,,,,,,,,,,,,,,,,,,,,,,,,,,,,,,,,,,,,,,,,,,,,,,,,,,,,,,,,,,,,,,,,,,,,hzlnxk,"['h', 'z', 'l', 'n', 'x', 'k']",0,"[0.6925784749910235, 0.9237360451370478, 1.1347239366732538, 1.3573658117093146, 1.494278087746352, 1.667259885929525, 1.9788810764439404]",541.1083742957562,None,541.1083742957562,None,1,HZLNXK,541.1083742957562,None,,,,,,,Pilot4,001,2019_Nov_19_1109,test_final,3.2.4,59.98320608272943,
Practice,5,(3/3) + 2,3,,,,,,,,,,,,,,,,,,,,,,,,,,,,,6,0,6,0,0,0,0,0,0,0,0,4,,,,,,,,,,,,,,,,,,,,,,,,,,3,,,,,,,,,,,,,,,,,,,,,,,,,,,,,,,,,,,,,,,,,,,,1,,,,,,,,,,,,,,,,,,,,,,,,,,543.6377405729145,None,['3'],0,[2.1708139101974666],543.6377405729145,None,543.6377405729145,None,543.6377405729145,None,545.8953465167433,None,545.8953465167433,None,,,,,,,,,,,,,,,,,,,,,Pilot4,001,2019_Nov_19_1109,test_final,3.2.4,59.98320608272943,
,,,,,,,,,,,,,,,,,,,,,,,,,,,,,,,,6,0,6,0,0,0,0,0,,,,,,,,,,,,,,,,,,,,,,,,,,,,,,,,,,,,,,,,,,,,,,,,,,,,,,,,,,,,,,,,,,,,,,,,,,,,,,,,,,,,,,,,,,,,,,,,,,,,,,,,,,,,,,,,,,,547.2179189263843,None,,,,,,,,,,,,,,,,,,,Pilot4,001,2019_Nov_19_1109,test_final,3.2.4,59.98320608272943,
Practice,15,(9/3) - 2,1,,,,,,,,,,,,,,,,,,,,,,,,,,,,,6,0,6,0,1,0,1,0,0,0,0,14,,,,,,,,,,,,,,,,,,,,,,,,,,1,,,,,,,,,,,,,,,,,,,,,,,,,,,,,,,,,,,,,,,,,,,,1,,,,,,,,,,,,,,,,,,,,,,,,,,548.5329308803193,None,['1'],0,[2.037121730390936],548.5329308803193,None,548.5329308803193,None,548.5329308803193,None,550.6537183439359,None,550.6537183439359,None,,,,,,,,,,,,,,,,,,,,,Pilot4,001,2019_Nov_19_1109,test_final,3.2.4,59.98320608272943,
,,,,,,,,,,,,,,,,,,,,,,,,,,,,,,,,6,0,6,0,1,0,1,0,,,,,,,,,,,,,,,,,,,,,,,,,,,,,,,,,,,,,,,,,,,,,,,,,,,,,,,,,,,,,,,,,,,,,,,,,,,,,,,,,,,,,,,,,,,,,,,,,,,,,,,,,,,,,,,,,,,551.9794561946765,None,,,,,,,,,,,,,,,,,,,Pilot4,001,2019_Nov_19_1109,test_final,3.2.4,59.98320608272943,
Practice,15,(9/3) - 2,1,,,,,,,,,,,,,,,,,,,,,,,,,,,,,6,0,6,0,2,0,2,0,0,0,0,14,,,,,,,,,,,,,,,,,,,,,,,,,,1,,,,,,,,,,,,,,,,,,,,,,,,,,,,,,,,,,,,,,,,,,,,1,,,,,,,,,,,,,,,,,,,,,,,,,,553.2778958654962,None,['1'],0,[1.2908813301473856],553.2778958654962,None,553.2778958654962,None,553.2778958654962,None,554.637558975257,None,554.637558975257,None,,,,,,,,,,,,,,,,,,,,,Pilot4,001,2019_Nov_19_1109,test_final,3.2.4,59.98320608272943,
,,,,,,,,,,,,,,,,,,,,,,,,,,,,,,,,6,0,6,0,2,0,2,0,,,,,,,,,,,,,,,,,,,,,,,,,,,,,,,,,,,,,,,,,,,,,,,,,,,,,,,,,,,,,,,,,,,,,,,,,,,,,,,,,,,,,,,,,,,,,,,,,,,,,,,,,,,,,,,,,,,555.9581821197644,None,,,,,,,,,,,,,,,,,,,Pilot4,001,2019_Nov_19_1109,test_final,3.2.4,59.98320608272943,
Practice,8,(3/3) + 5,6,,,,,,,,,,,,,,,,,,,,,,,,,,,,,6,0,6,0,3,0,3,0,0,0,0,7,,,,,,,,,,,,,,,,,,,,,,,,,,6,,,,,,,,,,,,,,,,,,,,,,,,,,,,,,,,,,,,,,,,,,,,1,,,,,,,,,,,,,,,,,,,,,,,,,,557.2735629105009,None,['6'],0,[1.665761617012322],557.2735629105009,None,557.2735629105009,None,557.2735629105009,None,559.0237907008268,None,559.0237907008268,None,,,,,,,,,,,,,,,,,,,,,Pilot4,001,2019_Nov_19_1109,test_final,3.2.4,59.98320608272943,
,,,,,,,,,,,,,,,,,,,,,,,,,,,,,,,,6,0,6,0,3,0,3,0,,,,,,,,,,,,,,,,,,,,,,,,,,,,,,,,,,,,,,,,,,,,,,,,,,,,,,,,,,,,,,,,,,,,,,,,,,,,,,,,,,,,,,,,,,,,,,,,,,,,,,,,,,,,,,,,,,,560.3529588072561,None,,,,,,,,,,,,,,,,,,,Pilot4,001,2019_Nov_19_1109,test_final,3.2.4,59.98320608272943,
Practice,8,(3/3) + 5,6,,,,,,,,,,,,,,,,,,,,,,,,,,,,,6,0,6,0,4,0,4,0,0,0,0,7,,,,,,,,,,,,,,,,,,,,,,,,,,6,,,,,,,,,,,,,,,,,,,,,,,,,,,,,,,,,,,,,,,,,,,,1,,,,,,,,,,,,,,,,,,,,,,,,,,561.6524630282074,None,['6'],0,[1.3831819430924952],561.6524630282074,None,561.6524630282074,None,561.6524630282074,None,563.110737180803,None,563.110737180803,None,,,,,,,,,,,,,,,,,,,,,Pilot4,001,2019_Nov_19_1109,test_final,3.2.4,59.98320608272943,
,,,,,,,,,,,,,,,,,,,,,,,,,,,,,,,,6,0,6,0,4,0,4,0,,,,,,,,,,,,,,,,,,,,,,,,,,,,,,,,,,,,,,,,,,,,,,,,,,,,,,,,,,,,,,,,,,,,,,,,,,,,,,,,,,,,,,,,,,,,,,,,,,,,,,,,,,,,,,,,,,,564.4311226615682,None,,,,,,,,,,,,,,,,,,,Pilot4,001,2019_Nov_19_1109,test_final,3.2.4,59.98320608272943,
Practice,4,(4x4) - 14,2,,,,,,,,,,,,,,,,,,,,,,,,,,,,,6,0,6,0,5,0,5,0,0,0,0,3,,,,,,,,,,,,,,,,,,,,,,,,,,2,,,,,,,,,,,,,,,,,,,,,,,,,,,,,,,,,,,,,,,,,,,,1,,,,,,,,,,,,,,,,,,,,,,,,,,565.7468426697887,None,['2'],0,[1.5121716256253421],565.7468426697887,None,565.7468426697887,None,565.7468426697887,None,567.3371679233387,None,567.3371679233387,None,,,,,,,,,,,,,,,,,,,,,Pilot4,001,2019_Nov_19_1109,test_final,3.2.4,59.98320608272943,
,,,,,,,,,,,,,,,,,,,,,,,,,,,,,,,,6,0,6,0,5,0,5,0,,,,,,,,,,,,,,,,,,,,,,,,,,,,,,,,,,,,,,,,,,,,,,,,,,,,,,,,,,,,,,,,,,,,,,,,,,,,,,,,,,,,,,,,,,,,,,,,,,,,,,,,,,,,,,,,,,,568.6441306942143,None,,,,,,,,,,,,,,,,,,,Pilot4,001,2019_Nov_19_1109,test_final,3.2.4,59.98320608272943,
Practice,13,(3x8) - 19 ,5,,,,,,,,,,,,,,,,,,,,,,,,,,,,,6,0,6,0,6,0,6,0,0,0,0,12,,,,,,,,,,,,,,,,,,,,,,,,,,5,,,,,,,,,,,,,,,,,,,,,,,,,,,,,,,,,,,,,,,,,,,,1,,,,,,,,,,,,,,,,,,,,,,,,,,569.9596715727821,None,['5'],0,[2.5078358501195908],569.9596715727821,None,569.9596715727821,None,569.9596715727821,None,572.5502359005623,None,572.5502359005623,None,,,,,,,,,,,,,,,,,,,,,Pilot4,001,2019_Nov_19_1109,test_final,3.2.4,59.98320608272943,
,,,,,,,,,,,,,,,,,,,,,,,,,,,,,,,,6,0,6,0,6,0,6,0,,,,,,,,,,,,,,,,,,,,,,,,,,,,,,,,,,,,,,,,,,,,,,,,,,,,,,,,,,,,,,,,,,,,,,,,,,,,,,,,,,,,,,,,,,,,,,,,,,,,,,,,,,,,,,,,,,,573.8712511551566,None,,,,,,,,,,,,,,,,,,,Pilot4,001,2019_Nov_19_1109,test_final,3.2.4,59.98320608272943,
,,,,,,,,,,,,,,,,,,,,,,,,,,,,,,,,6,0,6,0,,,,,,,,,,,,,,,,,,,,,,,,,,,,,,,,,,,,,,,,,,,,,,,,,,,,,,,,,,,,,,,,,,,,,,,,,,,,,,,,,,,,,,,,,,,,,,,,,,,,,,,,,,,,,,,,,,,,,,,,,kslvnht,"['k', 's', 'l', 'v', 'n', 'h', 't']",0,"[0.7700642463751137, 0.9750040550716221, 1.1119417194277048, 1.3988970145583153, 1.6526703666895628, 2.03908897889778, 2.2338198269717395, 2.618658363353461]",575.1541055170819,None,575.1541055170819,None,0,KLSVNHT,575.1541055170819,None,,,,,,,Pilot4,001,2019_Nov_19_1109,test_final,3.2.4,59.98320608272943,
Practice,9,(4/2) + 5,7,,,,,,,,,,,,,,,,,,,,,,,,,,,,,7,0,7,0,0,0,0,0,0,0,0,8,,,,,,,,,,,,,,,,,,,,,,,,,,7,,,,,,,,,,,,,,,,,,,,,,,,,,,,,,,,,,,,,,,,,,,,1,,,,,,,,,,,,,,,,,,,,,,,,,,578.3333381526172,None,['7'],0,[1.977456504944712],578.3333381526172,None,578.3333381526172,None,578.3333381526172,None,580.3899581800215,None,580.3899581800215,None,,,,,,,,,,,,,,,,,,,,,Pilot4,001,2019_Nov_19_1109,test_final,3.2.4,59.98320608272943,
,,,,,,,,,,,,,,,,,,,,,,,,,,,,,,,,7,0,7,0,0,0,0,0,,,,,,,,,,,,,,,,,,,,,,,,,,,,,,,,,,,,,,,,,,,,,,,,,,,,,,,,,,,,,,,,,,,,,,,,,,,,,,,,,,,,,,,,,,,,,,,,,,,,,,,,,,,,,,,,,,,581.6976268892176,None,,,,,,,,,,,,,,,,,,,Pilot4,001,2019_Nov_19_1109,test_final,3.2.4,59.98320608272943,
Practice,9,(4/2) + 5,7,,,,,,,,,,,,,,,,,,,,,,,,,,,,,7,0,7,0,1,0,1,0,0,0,0,8,,,,,,,,,,,,,,,,,,,,,,,,,,7,,,,,,,,,,,,,,,,,,,,,,,,,,,,,,,,,,,,,,,,,,,,1,,,,,,,,,,,,,,,,,,,,,,,,,,583.0280679422431,None,['7'],0,[1.9867789866402745],583.0280679422431,None,583.0280679422431,None,583.0280679422431,None,585.083244709298,None,585.083244709298,None,,,,,,,,,,,,,,,,,,,,,Pilot4,001,2019_Nov_19_1109,test_final,3.2.4,59.98320608272943,
,,,,,,,,,,,,,,,,,,,,,,,,,,,,,,,,7,0,7,0,1,0,1,0,,,,,,,,,,,,,,,,,,,,,,,,,,,,,,,,,,,,,,,,,,,,,,,,,,,,,,,,,,,,,,,,,,,,,,,,,,,,,,,,,,,,,,,,,,,,,,,,,,,,,,,,,,,,,,,,,,,586.4080974915996,None,,,,,,,,,,,,,,,,,,,Pilot4,001,2019_Nov_19_1109,test_final,3.2.4,59.98320608272943,
Practice,8,(3/3) + 5,6,,,,,,,,,,,,,,,,,,,,,,,,,,,,,7,0,7,0,2,0,2,0,0,0,0,7,,,,,,,,,,,,,,,,,,,,,,,,,,6,,,,,,,,,,,,,,,,,,,,,,,,,,,,,,,,,,,,,,,,,,,,1,,,,,,,,,,,,,,,,,,,,,,,,,,587.7237871745601,None,['6'],0,[1.7171491640619934],587.7237871745601,None,587.7237871745601,None,587.7237871745601,None,589.5293599301949,None,589.5293599301949,None,,,,,,,,,,,,,,,,,,,,,Pilot4,001,2019_Nov_19_1109,test_final,3.2.4,59.98320608272943,
,,,,,,,,,,,,,,,,,,,,,,,,,,,,,,,,7,0,7,0,2,0,2,0,,,,,,,,,,,,,,,,,,,,,,,,,,,,,,,,,,,,,,,,,,,,,,,,,,,,,,,,,,,,,,,,,,,,,,,,,,,,,,,,,,,,,,,,,,,,,,,,,,,,,,,,,,,,,,,,,,,590.8529316559434,None,,,,,,,,,,,,,,,,,,,Pilot4,001,2019_Nov_19_1109,test_final,3.2.4,59.98320608272943,
Practice,8,(3/3) + 5,6,,,,,,,,,,,,,,,,,,,,,,,,,,,,,7,0,7,0,3,0,3,0,0,0,0,7,,,,,,,,,,,,,,,,,,,,,,,,,,6,,,,,,,,,,,,,,,,,,,,,,,,,,,,,,,,,,,,,,,,,,,,1,,,,,,,,,,,,,,,,,,,,,,,,,,592.1521826977842,None,['6'],0,[2.0541742774657905],592.1521826977842,None,592.1521826977842,None,592.1521826977842,None,594.2870501494035,None,594.2870501494035,None,,,,,,,,,,,,,,,,,,,,,Pilot4,001,2019_Nov_19_1109,test_final,3.2.4,59.98320608272943,
,,,,,,,,,,,,,,,,,,,,,,,,,,,,,,,,7,0,7,0,3,0,3,0,,,,,,,,,,,,,,,,,,,,,,,,,,,,,,,,,,,,,,,,,,,,,,,,,,,,,,,,,,,,,,,,,,,,,,,,,,,,,,,,,,,,,,,,,,,,,,,,,,,,,,,,,,,,,,,,,,,595.6142305550165,None,,,,,,,,,,,,,,,,,,,Pilot4,001,2019_Nov_19_1109,test_final,3.2.4,59.98320608272943,
Practice,4,(4x4) - 14,2,,,,,,,,,,,,,,,,,,,,,,,,,,,,,7,0,7,0,4,0,4,0,0,0,0,3,,,,,,,,,,,,,,,,,,,,,,,,,,2,,,,,,,,,,,,,,,,,,,,,,,,,,,,,,,,,,,,,,,,,,,,1,,,,,,,,,,,,,,,,,,,,,,,,,,596.9301117090508,None,['2'],0,[1.1899200971238315],596.9301117090508,None,596.9301117090508,None,596.9301117090508,None,598.2060685348697,None,598.2060685348697,None,,,,,,,,,,,,,,,,,,,,,Pilot4,001,2019_Nov_19_1109,test_final,3.2.4,59.98320608272943,
,,,,,,,,,,,,,,,,,,,,,,,,,,,,,,,,7,0,7,0,4,0,4,0,,,,,,,,,,,,,,,,,,,,,,,,,,,,,,,,,,,,,,,,,,,,,,,,,,,,,,,,,,,,,,,,,,,,,,,,,,,,,,,,,,,,,,,,,,,,,,,,,,,,,,,,,,,,,,,,,,,599.510789367836,None,,,,,,,,,,,,,,,,,,,Pilot4,001,2019_Nov_19_1109,test_final,3.2.4,59.98320608272943,
Practice,1,(1x2) + 1,3,,,,,,,,,,,,,,,,,,,,,,,,,,,,,7,0,7,0,5,0,5,0,0,0,0,0,,,,,,,,,,,,,,,,,,,,,,,,,,3,,,,,,,,,,,,,,,,,,,,,,,,,,,,,,,,,,,,,,,,,,,,1,,,,,,,,,,,,,,,,,,,,,,,,,,600.8426726236939,None,['3'],0,[1.341683886013925],600.8426726236939,None,600.8426726236939,None,600.8426726236939,None,602.2563414601609,None,602.2563414601609,None,,,,,,,,,,,,,,,,,,,,,Pilot4,001,2019_Nov_19_1109,test_final,3.2.4,59.98320608272943,
,,,,,,,,,,,,,,,,,,,,,,,,,,,,,,,,7,0,7,0,5,0,5,0,,,,,,,,,,,,,,,,,,,,,,,,,,,,,,,,,,,,,,,,,,,,,,,,,,,,,,,,,,,,,,,,,,,,,,,,,,,,,,,,,,,,,,,,,,,,,,,,,,,,,,,,,,,,,,,,,,,603.5563446334563,None,,,,,,,,,,,,,,,,,,,Pilot4,001,2019_Nov_19_1109,test_final,3.2.4,59.98320608272943,
Practice,2,(1/1) - 1,0,,,,,,,,,,,,,,,,,,,,,,,,,,,,,7,0,7,0,6,0,6,0,0,0,0,1,,,,,,,,,,,,,,,,,,,,,,,,,,0,,,,,,,,,,,,,,,,,,,,,,,,,,,,,,,,,,,,,,,,,,,,1,,,,,,,,,,,,,,,,,,,,,,,,,,604.8877737186849,None,['0'],0,[1.4619956696406007],604.8877737186849,None,604.8877737186849,None,604.8877737186849,None,606.4181805681437,None,606.4181805681437,None,,,,,,,,,,,,,,,,,,,,,Pilot4,001,2019_Nov_19_1109,test_final,3.2.4,59.98320608272943,
,,,,,,,,,,,,,,,,,,,,,,,,,,,,,,,,7,0,7,0,6,0,6,0,,,,,,,,,,,,,,,,,,,,,,,,,,,,,,,,,,,,,,,,,,,,,,,,,,,,,,,,,,,,,,,,,,,,,,,,,,,,,,,,,,,,,,,,,,,,,,,,,,,,,,,,,,,,,,,,,,,607.7184277526103,None,,,,,,,,,,,,,,,,,,,Pilot4,001,2019_Nov_19_1109,test_final,3.2.4,59.98320608272943,
,,,,,,,,,,,,,,,,,,,,,,,,,,,,,,,,7,0,7,0,,,,,,,,,,,,,,,,,,,,,,,,,,,,,,,,,,,,,,,,,,,,,,,,,,,,,,,,,,,,,,,,,,,,,,,,,,,,,,,,,,,,,,,,,,,,,,,,,,,,,,,,,,,,,,,,,,,,,,,,,thrkzln,"['t', 'h', 'r', 'k', 'z', 'l', 'n']",0,"[0.5005486714653671, 0.6313395202159882, 0.8031259472481906, 0.9575646873563528, 1.2721852362155914, 1.4090033639222383, 1.5728724864311516, 1.99939244100824]",609.0165789825842,None,609.0165789825842,None,1,THRKZLN,609.0165789825842,None,,,,,,,Pilot4,001,2019_Nov_19_1109,test_final,3.2.4,59.98320608272943,
Practice,4,(4x4) - 14,2,,,,,,,,,,,,,,,,,,,,,,,,,,,,,8,0,8,0,0,0,0,0,0,0,0,3,,,,,,,,,,,,,,,,,,,,,,,,,,2,,,,,,,,,,,,,,,,,,,,,,,,,,,,,,,,,,,,,,,,,,,,1,,,,,,,,,,,,,,,,,,,,,,,,,,611.5804029707797,None,['2'],0,[1.2287643603049219],611.5804029707797,None,611.5804029707797,None,611.5804029707797,None,612.8833815245889,None,612.8833815245889,None,,,,,,,,,,,,,,,,,,,,,Pilot4,001,2019_Nov_19_1109,test_final,3.2.4,59.98320608272943,
,,,,,,,,,,,,,,,,,,,,,,,,,,,,,,,,8,0,8,0,0,0,0,0,,,,,,,,,,,,,,,,,,,,,,,,,,,,,,,,,,,,,,,,,,,,,,,,,,,,,,,,,,,,,,,,,,,,,,,,,,,,,,,,,,,,,,,,,,,,,,,,,,,,,,,,,,,,,,,,,,,614.2102823052555,None,,,,,,,,,,,,,,,,,,,Pilot4,001,2019_Nov_19_1109,test_final,3.2.4,59.98320608272943,
Practice,11,(5x3) - 7,8,,,,,,,,,,,,,,,,,,,,,,,,,,,,,8,0,8,0,1,0,1,0,0,0,0,10,,,,,,,,,,,,,,,,,,,,,,,,,,8,,,,,,,,,,,,,,,,,,,,,,,,,,,,,,,,,,,,,,,,,,,,1,,,,,,,,,,,,,,,,,,,,,,,,,,615.5093129617162,None,['8'],0,[1.5670754667371511],615.5093129617162,None,615.5093129617162,None,615.5093129617162,None,617.1638275142759,None,617.1638275142759,None,,,,,,,,,,,,,,,,,,,,,Pilot4,001,2019_Nov_19_1109,test_final,3.2.4,59.98320608272943,
,,,,,,,,,,,,,,,,,,,,,,,,,,,,,,,,8,0,8,0,1,0,1,0,,,,,,,,,,,,,,,,,,,,,,,,,,,,,,,,,,,,,,,,,,,,,,,,,,,,,,,,,,,,,,,,,,,,,,,,,,,,,,,,,,,,,,,,,,,,,,,,,,,,,,,,,,,,,,,,,,,618.4894691002555,None,,,,,,,,,,,,,,,,,,,Pilot4,001,2019_Nov_19_1109,test_final,3.2.4,59.98320608272943,
Practice,4,(4x4) - 14,2,,,,,,,,,,,,,,,,,,,,,,,,,,,,,8,0,8,0,2,0,2,0,0,0,0,3,,,,,,,,,,,,,,,,,,,,,,,,,,2,,,,,,,,,,,,,,,,,,,,,,,,,,,,,,,,,,,,,,,,,,,,1,,,,,,,,,,,,,,,,,,,,,,,,,,619.7881005946547,None,['2'],0,[1.1783391046337783],619.7881005946547,None,619.7881005946547,None,619.7881005946547,None,621.0460330615751,None,621.0460330615751,None,,,,,,,,,,,,,,,,,,,,,Pilot4,001,2019_Nov_19_1109,test_final,3.2.4,59.98320608272943,
,,,,,,,,,,,,,,,,,,,,,,,,,,,,,,,,8,0,8,0,2,0,2,0,,,,,,,,,,,,,,,,,,,,,,,,,,,,,,,,,,,,,,,,,,,,,,,,,,,,,,,,,,,,,,,,,,,,,,,,,,,,,,,,,,,,,,,,,,,,,,,,,,,,,,,,,,,,,,,,,,,622.3685557525605,None,,,,,,,,,,,,,,,,,,,Pilot4,001,2019_Nov_19_1109,test_final,3.2.4,59.98320608272943,
Practice,10,(8/4) + 3,5,,,,,,,,,,,,,,,,,,,,,,,,,,,,,8,0,8,0,3,0,3,0,0,0,0,9,,,,,,,,,,,,,,,,,,,,,,,,,,5,,,,,,,,,,,,,,,,,,,,,,,,,,,,,,,,,,,,,,,,,,,,1,,,,,,,,,,,,,,,,,,,,,,,,,,623.7004160881042,None,['5'],0,[2.477193452883512],623.7004160881042,None,623.7004160881042,None,623.7004160881042,None,626.25686121732,None,626.25686121732,None,,,,,,,,,,,,,,,,,,,,,Pilot4,001,2019_Nov_19_1109,test_final,3.2.4,59.98320608272943,
,,,,,,,,,,,,,,,,,,,,,,,,,,,,,,,,8,0,8,0,3,0,3,0,,,,,,,,,,,,,,,,,,,,,,,,,,,,,,,,,,,,,,,,,,,,,,,,,,,,,,,,,,,,,,,,,,,,,,,,,,,,,,,,,,,,,,,,,,,,,,,,,,,,,,,,,,,,,,,,,,,627.5794710046612,None,,,,,,,,,,,,,,,,,,,Pilot4,001,2019_Nov_19_1109,test_final,3.2.4,59.98320608272943,
Practice,9,(4/2) + 5,7,,,,,,,,,,,,,,,,,,,,,,,,,,,,,8,0,8,0,4,0,4,0,0,0,0,8,,,,,,,,,,,,,,,,,,,,,,,,,,7,,,,,,,,,,,,,,,,,,,,,,,,,,,,,,,,,,,,,,,,,,,,1,,,,,,,,,,,,,,,,,,,,,,,,,,628.8946994650178,None,['7'],0,[2.0159689555875957],628.8946994650178,None,628.8946994650178,None,628.8946994650178,None,631.0007179277018,None,631.0007179277018,None,,,,,,,,,,,,,,,,,,,,,Pilot4,001,2019_Nov_19_1109,test_final,3.2.4,59.98320608272943,
,,,,,,,,,,,,,,,,,,,,,,,,,,,,,,,,8,0,8,0,4,0,4,0,,,,,,,,,,,,,,,,,,,,,,,,,,,,,,,,,,,,,,,,,,,,,,,,,,,,,,,,,,,,,,,,,,,,,,,,,,,,,,,,,,,,,,,,,,,,,,,,,,,,,,,,,,,,,,,,,,,632.3074398613535,None,,,,,,,,,,,,,,,,,,,Pilot4,001,2019_Nov_19_1109,test_final,3.2.4,59.98320608272943,
Practice,2,(1/1) - 1,0,,,,,,,,,,,,,,,,,,,,,,,,,,,,,8,0,8,0,5,0,5,0,0,0,0,1,,,,,,,,,,,,,,,,,,,,,,,,,,0,,,,,,,,,,,,,,,,,,,,,,,,,,,,,,,,,,,,,,,,,,,,1,,,,,,,,,,,,,,,,,,,,,,,,,,633.6231595170684,None,['0'],0,[1.2277054521255195],633.6231595170684,None,633.6231595170684,None,633.6231595170684,None,634.9290023767389,None,634.9290023767389,None,,,,,,,,,,,,,,,,,,,,,Pilot4,001,2019_Nov_19_1109,test_final,3.2.4,59.98320608272943,
,,,,,,,,,,,,,,,,,,,,,,,,,,,,,,,,8,0,8,0,5,0,5,0,,,,,,,,,,,,,,,,,,,,,,,,,,,,,,,,,,,,,,,,,,,,,,,,,,,,,,,,,,,,,,,,,,,,,,,,,,,,,,,,,,,,,,,,,,,,,,,,,,,,,,,,,,,,,,,,,,,636.2537426743656,None,,,,,,,,,,,,,,,,,,,Pilot4,001,2019_Nov_19_1109,test_final,3.2.4,59.98320608272943,
Practice,12,(8/2) + 4,8,,,,,,,,,,,,,,,,,,,,,,,,,,,,,8,0,8,0,6,0,6,0,0,0,0,11,,,,,,,,,,,,,,,,,,,,,,,,,,8,,,,,,,,,,,,,,,,,,,,,,,,,,,,,,,,,,,,,,,,,,,,1,,,,,,,,,,,,,,,,,,,,,,,,,,637.5511340158992,None,['8'],0,[2.676229045726359],637.5511340158992,None,637.5511340158992,None,637.5511340158992,None,640.3080223840661,None,640.3080223840661,None,,,,,,,,,,,,,,,,,,,,,Pilot4,001,2019_Nov_19_1109,test_final,3.2.4,59.98320608272943,
,,,,,,,,,,,,,,,,,,,,,,,,,,,,,,,,8,0,8,0,6,0,6,0,,,,,,,,,,,,,,,,,,,,,,,,,,,,,,,,,,,,,,,,,,,,,,,,,,,,,,,,,,,,,,,,,,,,,,,,,,,,,,,,,,,,,,,,,,,,,,,,,,,,,,,,,,,,,,,,,,,641.6311230142601,None,,,,,,,,,,,,,,,,,,,Pilot4,001,2019_Nov_19_1109,test_final,3.2.4,59.98320608272943,
Practice,3,(7x2) - 5,9,,,,,,,,,,,,,,,,,,,,,,,,,,,,,8,0,8,0,7,0,7,0,0,0,0,2,,,,,,,,,,,,,,,,,,,,,,,,,,,,,,,,,,,,,,,,,,,,,,,,,,,,,,,,,,,,,,,,,,,,,,0,,,,,,,,,,,,,,,,,,,,,,,,,,642.962272121571,None,None,0,,642.962272121571,None,642.962272121571,None,642.962272121571,None,647.2380152614787,None,647.2380152614787,None,,,,,,,,,,,,,,,,,,,,,Pilot4,001,2019_Nov_19_1109,test_final,3.2.4,59.98320608272943,
Practice,1,(1x2) + 1,3,,,,,,,,,,,,,,,,,,,,,,,,,,,,,8,0,8,0,7,0,7,0,0,1,1,0,,,,,,,,,,,,,,,,,,,,,,,,,,3,,,,,,,,,,,,,,,,,,,,,,,,,,,,,,,,,,,,,,,,,,,,1,,,,,,,,,,,,,,,,,,,,,,,,,,648.5563590908423,None,['3'],0,[1.8103239135816693],648.5563590908423,None,648.5563590908423,None,648.5563590908423,None,650.4294216381386,None,650.4294216381386,None,,,,,,,,,,,,,,,,,,,,,Pilot4,001,2019_Nov_19_1109,test_final,3.2.4,59.98320608272943,
,,,,,,,,,,,,,,,,,,,,,,,,,,,,,,,,8,0,8,0,7,0,7,0,,,,,,,,,,,,,,,,,,,,,,,,,,,,,,,,,,,,,,,,,,,,,,,,,,,,,,,,,,,,,,,,,,,,,,,,,,,,,,,,,,,,,,,,,,,,,,,,,,,,,,,,,,,,,,,,,,,651.735999703873,None,,,,,,,,,,,,,,,,,,,Pilot4,001,2019_Nov_19_1109,test_final,3.2.4,59.98320608272943,
,,,,,,,,,,,,,,,,,,,,,,,,,,,,,,,,8,0,8,0,,,,,,,,,,,,,,,,,,,,,,,,,,,,,,,,,,,,,,,,,,,,,,,,,,,,,,,,,,,,,,,,,,,,,,,,,,,,,,,,,,,,,,,,,,,,,,,,,,,,,,,,,,,,,,,,,,,,,,,,,xvjrhlsn,"['x', 'v', 'j', 'r', 'h', 'l', 's', 'n']",0,"[0.7353293793275952, 1.1040004370734096, 1.3620767714455724, 1.6108538964763284, 1.9005973325110972, 2.4580036951228976, 2.7323536463081837, 3.024382038973272, 3.4001399888657033]",653.0181981991045,None,653.0181981991045,None,0,XVJRLHSN,653.0181981991045,None,,,,,,,Pilot4,001,2019_Nov_19_1109,test_final,3.2.4,59.98320608272943,
Practice,9,(4/2) + 5,7,,,,,,,,,,,,,,,,,,,,,,,,,,,,,9,0,9,0,0,0,0,0,0,0,0,8,,,,,,,,,,,,,,,,,,,,,,,,,,7,,,,,,,,,,,,,,,,,,,,,,,,,,,,,,,,,,,,,,,,,,,,1,,,,,,,,,,,,,,,,,,,,,,,,,,656.9638751172461,None,['7'],0,[1.8819915088824928],656.9638751172461,None,656.9638751172461,None,656.9638751172461,None,658.9109748443589,None,658.9109748443589,None,,,,,,,,,,,,,,,,,,,,,Pilot4,001,2019_Nov_19_1109,test_final,3.2.4,59.98320608272943,
,,,,,,,,,,,,,,,,,,,,,,,,,,,,,,,,9,0,9,0,0,0,0,0,,,,,,,,,,,,,,,,,,,,,,,,,,,,,,,,,,,,,,,,,,,,,,,,,,,,,,,,,,,,,,,,,,,,,,,,,,,,,,,,,,,,,,,,,,,,,,,,,,,,,,,,,,,,,,,,,,,660.2273648246191,None,,,,,,,,,,,,,,,,,,,Pilot4,001,2019_Nov_19_1109,test_final,3.2.4,59.98320608272943,
Practice,5,(3/3) + 2,3,,,,,,,,,,,,,,,,,,,,,,,,,,,,,9,0,9,0,1,0,1,0,0,0,0,4,,,,,,,,,,,,,,,,,,,,,,,,,,3,,,,,,,,,,,,,,,,,,,,,,,,,,,,,,,,,,,,,,,,,,,,1,,,,,,,,,,,,,,,,,,,,,,,,,,661.5416175941937,None,['3'],0,[1.7754183798097074],661.5416175941937,None,661.5416175941937,None,661.5416175941937,None,663.4025518875569,None,663.4025518875569,None,,,,,,,,,,,,,,,,,,,,,Pilot4,001,2019_Nov_19_1109,test_final,3.2.4,59.98320608272943,
,,,,,,,,,,,,,,,,,,,,,,,,,,,,,,,,9,0,9,0,1,0,1,0,,,,,,,,,,,,,,,,,,,,,,,,,,,,,,,,,,,,,,,,,,,,,,,,,,,,,,,,,,,,,,,,,,,,,,,,,,,,,,,,,,,,,,,,,,,,,,,,,,,,,,,,,,,,,,,,,,,664.7219736669213,None,,,,,,,,,,,,,,,,,,,Pilot4,001,2019_Nov_19_1109,test_final,3.2.4,59.98320608272943,
Practice,1,(1x2) + 1,3,,,,,,,,,,,,,,,,,,,,,,,,,,,,,9,0,9,0,2,0,2,0,0,0,0,0,,,,,,,,,,,,,,,,,,,,,,,,,,3,,,,,,,,,,,,,,,,,,,,,,,,,,,,,,,,,,,,,,,,,,,,1,,,,,,,,,,,,,,,,,,,,,,,,,,666.0376340826042,None,['3'],0,[1.6098623382858932],666.0376340826042,None,666.0376340826042,None,666.0376340826042,None,667.7343413471244,None,667.7343413471244,None,,,,,,,,,,,,,,,,,,,,,Pilot4,001,2019_Nov_19_1109,test_final,3.2.4,59.98320608272943,
,,,,,,,,,,,,,,,,,,,,,,,,,,,,,,,,9,0,9,0,2,0,2,0,,,,,,,,,,,,,,,,,,,,,,,,,,,,,,,,,,,,,,,,,,,,,,,,,,,,,,,,,,,,,,,,,,,,,,,,,,,,,,,,,,,,,,,,,,,,,,,,,,,,,,,,,,,,,,,,,,,669.0505349198356,None,,,,,,,,,,,,,,,,,,,Pilot4,001,2019_Nov_19_1109,test_final,3.2.4,59.98320608272943,
Practice,13,(3x8) - 19 ,5,,,,,,,,,,,,,,,,,,,,,,,,,,,,,9,0,9,0,3,0,3,0,0,0,0,12,,,,,,,,,,,,,,,,,,,,,,,,,,5,,,,,,,,,,,,,,,,,,,,,,,,,,,,,,,,,,,,,,,,,,,,1,,,,,,,,,,,,,,,,,,,,,,,,,,670.3489555492997,None,['5'],0,[1.917826188262552],670.3489555492997,None,670.3489555492997,None,670.3489555492997,None,672.3600189005956,None,672.3600189005956,None,,,,,,,,,,,,,,,,,,,,,Pilot4,001,2019_Nov_19_1109,test_final,3.2.4,59.98320608272943,
,,,,,,,,,,,,,,,,,,,,,,,,,,,,,,,,9,0,9,0,3,0,3,0,,,,,,,,,,,,,,,,,,,,,,,,,,,,,,,,,,,,,,,,,,,,,,,,,,,,,,,,,,,,,,,,,,,,,,,,,,,,,,,,,,,,,,,,,,,,,,,,,,,,,,,,,,,,,,,,,,,673.6786554018036,None,,,,,,,,,,,,,,,,,,,Pilot4,001,2019_Nov_19_1109,test_final,3.2.4,59.98320608272943,
Practice,12,(8/2) + 4,8,,,,,,,,,,,,,,,,,,,,,,,,,,,,,9,0,9,0,4,0,4,0,0,0,0,11,,,,,,,,,,,,,,,,,,,,,,,,,,8,,,,,,,,,,,,,,,,,,,,,,,,,,,,,,,,,,,,,,,,,,,,1,,,,,,,,,,,,,,,,,,,,,,,,,,674.9940467714332,None,['8'],0,[3.789434190839529],674.9940467714332,None,674.9940467714332,None,674.9940467714332,None,678.8836297667585,None,678.8836297667585,None,,,,,,,,,,,,,,,,,,,,,Pilot4,001,2019_Nov_19_1109,test_final,3.2.4,59.98320608272943,
,,,,,,,,,,,,,,,,,,,,,,,,,,,,,,,,9,0,9,0,4,0,4,0,,,,,,,,,,,,,,,,,,,,,,,,,,,,,,,,,,,,,,,,,,,,,,,,,,,,,,,,,,,,,,,,,,,,,,,,,,,,,,,,,,,,,,,,,,,,,,,,,,,,,,,,,,,,,,,,,,,680.20538692642,None,,,,,,,,,,,,,,,,,,,Pilot4,001,2019_Nov_19_1109,test_final,3.2.4,59.98320608272943,
Practice,10,(8/4) + 3,5,,,,,,,,,,,,,,,,,,,,,,,,,,,,,9,0,9,0,5,0,5,0,0,0,0,9,,,,,,,,,,,,,,,,,,,,,,,,,,5,,,,,,,,,,,,,,,,,,,,,,,,,,,,,,,,,,,,,,,,,,,,1,,,,,,,,,,,,,,,,,,,,,,,,,,681.5199510571547,None,['5'],0,[3.6436035316437483],681.5199510571547,None,681.5199510571547,None,681.5199510571547,None,685.2527243173681,None,685.2527243173681,None,,,,,,,,,,,,,,,,,,,,,Pilot4,001,2019_Nov_19_1109,test_final,3.2.4,59.98320608272943,
,,,,,,,,,,,,,,,,,,,,,,,,,,,,,,,,9,0,9,0,5,0,5,0,,,,,,,,,,,,,,,,,,,,,,,,,,,,,,,,,,,,,,,,,,,,,,,,,,,,,,,,,,,,,,,,,,,,,,,,,,,,,,,,,,,,,,,,,,,,,,,,,,,,,,,,,,,,,,,,,,,686.5641515688039,None,,,,,,,,,,,,,,,,,,,Pilot4,001,2019_Nov_19_1109,test_final,3.2.4,59.98320608272943,
Practice,1,(1x2) + 1,3,,,,,,,,,,,,,,,,,,,,,,,,,,,,,9,0,9,0,6,0,6,0,0,0,0,0,,,,,,,,,,,,,,,,,,,,,,,,,,3,,,,,,,,,,,,,,,,,,,,,,,,,,,,,,,,,,,,,,,,,,,,1,,,,,,,,,,,,,,,,,,,,,,,,,,687.8797657922842,None,['3'],0,[2.264622312504798],687.8797657922842,None,687.8797657922842,None,687.8797657922842,None,690.2237755386159,None,690.2237755386159,None,,,,,,,,,,,,,,,,,,,,,Pilot4,001,2019_Nov_19_1109,test_final,3.2.4,59.98320608272943,
,,,,,,,,,,,,,,,,,,,,,,,,,,,,,,,,9,0,9,0,6,0,6,0,,,,,,,,,,,,,,,,,,,,,,,,,,,,,,,,,,,,,,,,,,,,,,,,,,,,,,,,,,,,,,,,,,,,,,,,,,,,,,,,,,,,,,,,,,,,,,,,,,,,,,,,,,,,,,,,,,,691.5440753330477,None,,,,,,,,,,,,,,,,,,,Pilot4,001,2019_Nov_19_1109,test_final,3.2.4,59.98320608272943,
Practice,5,(3/3) + 2,3,,,,,,,,,,,,,,,,,,,,,,,,,,,,,9,0,9,0,7,0,7,0,0,0,0,4,,,,,,,,,,,,,,,,,,,,,,,,,,3,,,,,,,,,,,,,,,,,,,,,,,,,,,,,,,,,,,,,,,,,,,,1,,,,,,,,,,,,,,,,,,,,,,,,,,692.8565131844953,None,['3'],0,[2.4539806907996535],692.8565131844953,None,692.8565131844953,None,692.8565131844953,None,695.3966201683506,None,695.3966201683506,None,,,,,,,,,,,,,,,,,,,,,Pilot4,001,2019_Nov_19_1109,test_final,3.2.4,59.98320608272943,
,,,,,,,,,,,,,,,,,,,,,,,,,,,,,,,,9,0,9,0,7,0,7,0,,,,,,,,,,,,,,,,,,,,,,,,,,,,,,,,,,,,,,,,,,,,,,,,,,,,,,,,,,,,,,,,,,,,,,,,,,,,,,,,,,,,,,,,,,,,,,,,,,,,,,,,,,,,,,,,,,,696.7038064980879,None,,,,,,,,,,,,,,,,,,,Pilot4,001,2019_Nov_19_1109,test_final,3.2.4,59.98320608272943,
,,,,,,,,,,,,,,,,,,,,,,,,,,,,,,,,9,0,9,0,,,,,,,,,,,,,,,,,,,,,,,,,,,,,,,,,,,,,,,,,,,,,,,,,,,,,,,,,,,,,,,,,,,,,,,,,,,,,,,,,,,,,,,,,,,,,,,,,,,,,,,,,,,,,,,,,,,,,,,,,nzjjvrkx,"['n', 'z', 'j', 'j', 'v', 'r', 'k', 'x']",0,"[1.9420484919101, 2.3442608094774187, 2.964320119470358, 3.9522348851896822, 4.330066926777363, 4.829992877319455, 5.509417335968465, 5.751759910490364, 6.079907543957233]",697.986470094882,None,697.986470094882,None,0,NJRTXVHS,697.986470094882,None,,,,,,,Pilot4,001,2019_Nov_19_1109,test_final,3.2.4,59.98320608272943,
,,,,,,,,,,,,,,,,,,,,,,,,,,,,,,,,,,,,,,,,,,,,,,,,,,,,,,,,,,,,,,,,,,,,,,,,,,,,,,,,,,,,,,,,,,,,,,,,,,,,,,,,,,,,,,,,,,,,,,,,,,,,,,,,,,,,,,,,,,,,,,,,,,,,,,,,,,,,,,,,,,,,,,,,704.5946977017447,None,space,64.62142428988591,704.5946977017447,None,Pilot4,001,2019_Nov_19_1109,test_final,3.2.4,59.98320608272943,
