Task,Trial,Problem,Operation_answer,next_level.thisRepN,next_level.thisTrialN,next_level.thisN,next_level.thisIndex,next_letter.thisRepN,next_letter.thisTrialN,next_letter.thisN,next_letter.thisIndex,repeat_practice.thisRepN,repeat_practice.thisTrialN,repeat_practice.thisN,repeat_practice.thisIndex,trials.thisRepN,trials.thisTrialN,trials.thisN,trials.thisIndex,span_recall_prac.thisRepN,span_recall_prac.thisTrialN,span_recall_prac.thisN,span_recall_prac.thisIndex,span_size_prac.thisRepN,span_size_prac.thisTrialN,span_size_prac.thisN,span_size_prac.thisIndex,repeat_if_wrong_prac.thisRepN,repeat_if_wrong_prac.thisTrialN,repeat_if_wrong_prac.thisN,repeat_if_wrong_prac.thisIndex,span_recall.thisRepN,span_recall.thisTrialN,span_recall.thisN,span_recall.thisIndex,span_size.thisRepN,span_size.thisTrialN,span_size.thisN,span_size.thisIndex,repeat_if_wrong.thisRepN,repeat_if_wrong.thisTrialN,repeat_if_wrong.thisN,repeat_if_wrong.thisIndex,instructions_2.started,instructions_2.stopped,key_resp_4.keys,key_resp_4.rt,key_resp_4.started,key_resp_4.stopped,text_2.started,text_2.stopped,simple_recall,key_resp_5.keys,key_resp_5.rt,key_resp_5.started,key_resp_5.stopped,text_feedback.started,text_feedback.stopped,simple_recall_corr,simple_recall_corrkeys,instructions_3.started,instructions_3.stopped,instructions.started,instructions.stopped,key_resp_2.keys,key_resp_2.rt,key_resp_2.started,key_resp_2.stopped,digit_answer,operation.started,operation.stopped,key_resp.keys,key_resp.corr,key_resp.rt,key_resp.started,key_resp.stopped,operation_feedback.started,operation_feedback.stopped,RT_list,instructions_8.started,instructions_8.stopped,feedback_msg.started,feedback_msg.stopped,processing_score,sumRT,meanRT,sumdiff,sd,RT,feedback_msg_2.started,feedback_msg_2.stopped,key_resp_3.keys,key_resp_3.rt,key_resp_3.started,key_resp_3.stopped,instructions_4.started,instructions_4.stopped,key_resp_6.keys,key_resp_6.rt,key_resp_6.started,key_resp_6.stopped,operation_3.started,operation_3.stopped,key_resp_11.keys,key_resp_11.corr,key_resp_11.rt,key_resp_11.started,key_resp_11.stopped,operation_feedback_2.started,operation_feedback_2.stopped,instructions_9.started,instructions_9.stopped,operation_correct,feedback_msg_4.started,feedback_msg_4.stopped,operation_4.started,operation_4.stopped,text_3.started,text_3.stopped,complex_recall_prac,key_resp_9.keys,key_resp_9.corr,key_resp_9.rt,key_resp_9.started,key_resp_9.stopped,text_feedback_3.started,text_feedback_3.stopped,instructions_6.started,instructions_6.stopped,complex_prac_corr,feedback_msg_3.started,feedback_msg_3.stopped,instructions_7.started,instructions_7.stopped,key_resp_10.keys,key_resp_10.rt,key_resp_10.started,key_resp_10.stopped,operation_2.started,operation_2.stopped,key_resp_7.keys,key_resp_7.corr,key_resp_7.rt,key_resp_7.started,key_resp_7.stopped,operation_feedback_3.started,operation_feedback_3.stopped,instructions_10.started,instructions_10.stopped,feedback_msg_5.started,feedback_msg_5.stopped,operation_5.started,operation_5.stopped,text.started,text.stopped,complex_recall,key_resp_8.keys,key_resp_8.corr,key_resp_8.rt,key_resp_8.started,key_resp_8.stopped,text_feedback_2.started,text_feedback_2.stopped,complex_recall_corr,complex_recall_corrkeys,instructions_5.started,instructions_5.stopped,participant,session,date,expName,psychopyVersion,frameRate,
,,,,,,,,,,,,,,,,,,,,,,,,,,,,,,,,,,,,,,,,,,,,10.196672999998555,None,space,51.599079799998435,10.196672999998555,None,,,,,,,,,,,,,,,,,,,,,,,,,,,,,,,,,,,,,,,,,,,,,,,,,,,,,,,,,,,,,,,,,,,,,,,,,,,,,,,,,,,,,,,,,,,,,,,,,,,,,,,,,,,,,,,,,,,,,,,Pilot5,001,2019_Nov_19_1145,test_final,3.1.5,60.02627950524162,
,,,,0,0,0,0,0,0,0,0,,,,,,,,,,,,,,,,,,,,,,,,,,,,,,,,,,,,,,,62.355445000001055,None,,,,,,,,,,,,,,,,,,,,,,,,,,,,,,,,,,,,,,,,,,,,,,,,,,,,,,,,,,,,,,,,,,,,,,,,,,,,,,,,,,,,,,,,,,,,,,,,,,,,,,,,,,,,,,,,,,,,,Pilot5,001,2019_Nov_19_1145,test_final,3.1.5,60.02627950524162,
,,,,0,0,0,0,1,0,1,0,,,,,,,,,,,,,,,,,,,,,,,,,,,,,,,,,,,,,,,63.654303499999514,None,,,,,,,,,,,,,,,,,,,,,,,,,,,,,,,,,,,,,,,,,,,,,,,,,,,,,,,,,,,,,,,,,,,,,,,,,,,,,,,,,,,,,,,,,,,,,,,,,,,,,,,,,,,,,,,,,,,,,Pilot5,001,2019_Nov_19_1145,test_final,3.1.5,60.02627950524162,
,,,,1,0,1,0,0,0,0,0,,,,,,,,,,,,,,,,,,,,,,,,,,,,,,,,,,,,,,,67.55065090000426,None,xj,"['x', 'j']","[1.3567430000039167, 1.5241161000012653, 2.0490681000010227]",64.95067270000436,None,64.95067270000436,None,1,XJ,64.95067270000436,None,,,,,,,,,,,,,,,,,,,,,,,,,,,,,,,,,,,,,,,,,,,,,,,,,,,,,,,,,,,,,,,,,,,,,,,,,,,,,,,,,,,,,,,,,,,,,,,,,,,,,,,,,,Pilot5,001,2019_Nov_19_1145,test_final,3.1.5,60.02627950524162,
,,,,1,0,1,0,1,0,1,0,,,,,,,,,,,,,,,,,,,,,,,,,,,,,,,,,,,,,,,68.8493540000054,None,,,,,,,,,,,,,,,,,,,,,,,,,,,,,,,,,,,,,,,,,,,,,,,,,,,,,,,,,,,,,,,,,,,,,,,,,,,,,,,,,,,,,,,,,,,,,,,,,,,,,,,,,,,,,,,,,,,,,Pilot5,001,2019_Nov_19_1145,test_final,3.1.5,60.02627950524162,
,,,,2,0,2,0,0,0,0,0,,,,,,,,,,,,,,,,,,,,,,,,,,,,,,,,,,,,,,,71.84629820000555,None,zt,"['z', 't']","[0.51875189999555, 0.8586586999954307, 1.126027799997246]",70.16461590000108,None,70.16461590000108,None,1,ZT,70.16461590000108,None,,,,,,,,,,,,,,,,,,,,,,,,,,,,,,,,,,,,,,,,,,,,,,,,,,,,,,,,,,,,,,,,,,,,,,,,,,,,,,,,,,,,,,,,,,,,,,,,,,,,,,,,,,Pilot5,001,2019_Nov_19_1145,test_final,3.1.5,60.02627950524162,
,,,,2,0,2,0,1,0,1,0,,,,,,,,,,,,,,,,,,,,,,,,,,,,,,,,,,,,,,,73.16174980000505,None,,,,,,,,,,,,,,,,,,,,,,,,,,,,,,,,,,,,,,,,,,,,,,,,,,,,,,,,,,,,,,,,,,,,,,,,,,,,,,,,,,,,,,,,,,,,,,,,,,,,,,,,,,,,,,,,,,,,,Pilot5,001,2019_Nov_19_1145,test_final,3.1.5,60.02627950524162,
,,,,2,0,2,0,2,0,2,0,,,,,,,,,,,,,,,,,,,,,,,,,,,,,,,,,,,,,,,74.4605773000003,None,,,,,,,,,,,,,,,,,,,,,,,,,,,,,,,,,,,,,,,,,,,,,,,,,,,,,,,,,,,,,,,,,,,,,,,,,,,,,,,,,,,,,,,,,,,,,,,,,,,,,,,,,,,,,,,,,,,,,Pilot5,001,2019_Nov_19_1145,test_final,3.1.5,60.02627950524162,
,,,,3,0,3,0,0,0,0,0,,,,,,,,,,,,,,,,,,,,,,,,,,,,,,,,,,,,,,,80.38759940000455,None,qxr,"['q', 'x', 'r']","[0.8397085000033258, 1.1083801999993739, 2.1412211999995634, 2.308262200000172, 2.8057115000046906, 3.0893356000015046, 3.307147100000293, 4.078433599999698]",75.75880950000283,None,75.75880950000283,None,1,QXR,75.75880950000283,None,,,,,,,,,,,,,,,,,,,,,,,,,,,,,,,,,,,,,,,,,,,,,,,,,,,,,,,,,,,,,,,,,,,,,,,,,,,,,,,,,,,,,,,,,,,,,,,,,,,,,,,,,,Pilot5,001,2019_Nov_19_1145,test_final,3.1.5,60.02627950524162,
,,,,3,0,3,0,1,0,1,0,,,,,,,,,,,,,,,,,,,,,,,,,,,,,,,,,,,,,,,81.70345010000165,None,,,,,,,,,,,,,,,,,,,,,,,,,,,,,,,,,,,,,,,,,,,,,,,,,,,,,,,,,,,,,,,,,,,,,,,,,,,,,,,,,,,,,,,,,,,,,,,,,,,,,,,,,,,,,,,,,,,,,Pilot5,001,2019_Nov_19_1145,test_final,3.1.5,60.02627950524162,
,,,,3,0,3,0,2,0,2,0,,,,,,,,,,,,,,,,,,,,,,,,,,,,,,,,,,,,,,,83.00229460000264,None,,,,,,,,,,,,,,,,,,,,,,,,,,,,,,,,,,,,,,,,,,,,,,,,,,,,,,,,,,,,,,,,,,,,,,,,,,,,,,,,,,,,,,,,,,,,,,,,,,,,,,,,,,,,,,,,,,,,,Pilot5,001,2019_Nov_19_1145,test_final,3.1.5,60.02627950524162,
,,,,4,0,4,0,0,0,0,0,,,,,,,,,,,,,,,,,,,,,,,,,,,,,,,,,,,,,,,86.31545320000441,None,sxj,"['s', 'x', 'j']","[0.7501273000016226, 0.9316614999988815, 1.0905892000009771, 1.4451055999961682]",84.30099190000328,None,84.30099190000328,None,1,SXJ,84.30099190000328,None,,,,,,,,,,,,,,,,,,,,,,,,,,,,,,,,,,,,,,,,,,,,,,,,,,,,,,,,,,,,,,,,,,,,,,,,,,,,,,,,,,,,,,,,,,,,,,,,,,,,,,,,,,Pilot5,001,2019_Nov_19_1145,test_final,3.1.5,60.02627950524162,
,,,,4,0,4,0,1,0,1,0,,,,,,,,,,,,,,,,,,,,,,,,,,,,,,,,,,,,,,,87.61428310000338,87.10589869999967,,,,,,,,,,,,,,,,,,,,,,,,,,,,,,,,,,,,,,,,,,,,,,,,,,,,,,,,,,,,,,,,,,,,,,,,,,,,,,,,,,,,,,,,,,,,,,,,,,,,,,,,,,,,,,,,,,,,,Pilot5,001,2019_Nov_19_1145,test_final,3.1.5,60.02627950524162,
,,,,4,0,4,0,2,0,2,0,,,,,,,,,,,,,,,,,,,,,,,,,,,,,,,,,,,,,,,88.91275970000424,88.40498590000061,,,,,,,,,,,,,,,,,,,,,,,,,,,,,,,,,,,,,,,,,,,,,,,,,,,,,,,,,,,,,,,,,,,,,,,,,,,,,,,,,,,,,,,,,,,,,,,,,,,,,,,,,,,,,,,,,,,,,Pilot5,001,2019_Nov_19_1145,test_final,3.1.5,60.02627950524162,
,,,,4,0,4,0,3,0,3,0,,,,,,,,,,,,,,,,,,,,,,,,,,,,,,,,,,,,,,,90.21159389999957,89.69342229999893,,,,,,,,,,,,,,,,,,,,,,,,,,,,,,,,,,,,,,,,,,,,,,,,,,,,,,,,,,,,,,,,,,,,,,,,,,,,,,,,,,,,,,,,,,,,,,,,,,,,,,,,,,,,,,,,,,,,,Pilot5,001,2019_Nov_19_1145,test_final,3.1.5,60.02627950524162,
,,,,5,0,5,0,0,0,0,0,,,,,,,,,,,,,,,,,,,,,,,,,,,,,,,,,,,,,,,94.40718090000155,None,nhvt,"['n', 'h', 'v', 't']","[0.4276099999988219, 0.7176307999980054, 0.9187584999963292, 1.7127389000015683, 1.8909282000022358, 2.08712309999828, 2.343460199997935]",91.5096268999987,None,91.5096268999987,None,1,NHVT,91.5096268999987,None,,,,,,,,,,,,,,,,,,,,,,,,,,,,,,,,,,,,,,,,,,,,,,,,,,,,,,,,,,,,,,,,,,,,,,,,,,,,,,,,,,,,,,,,,,,,,,,,,,,,,,,,,,Pilot5,001,2019_Nov_19_1145,test_final,3.1.5,60.02627950524162,
,,,,5,0,5,0,1,0,1,0,,,,,,,,,,,,,,,,,,,,,,,,,,,,,,,,,,,,,,,95.72297740000067,None,,,,,,,,,,,,,,,,,,,,,,,,,,,,,,,,,,,,,,,,,,,,,,,,,,,,,,,,,,,,,,,,,,,,,,,,,,,,,,,,,,,,,,,,,,,,,,,,,,,,,,,,,,,,,,,,,,,,,Pilot5,001,2019_Nov_19_1145,test_final,3.1.5,60.02627950524162,
,,,,5,0,5,0,2,0,2,0,,,,,,,,,,,,,,,,,,,,,,,,,,,,,,,,,,,,,,,97.02155620000121,None,,,,,,,,,,,,,,,,,,,,,,,,,,,,,,,,,,,,,,,,,,,,,,,,,,,,,,,,,,,,,,,,,,,,,,,,,,,,,,,,,,,,,,,,,,,,,,,,,,,,,,,,,,,,,,,,,,,,,Pilot5,001,2019_Nov_19_1145,test_final,3.1.5,60.02627950524162,
,,,,5,0,5,0,3,0,3,0,,,,,,,,,,,,,,,,,,,,,,,,,,,,,,,,,,,,,,,98.3200644000026,None,,,,,,,,,,,,,,,,,,,,,,,,,,,,,,,,,,,,,,,,,,,,,,,,,,,,,,,,,,,,,,,,,,,,,,,,,,,,,,,,,,,,,,,,,,,,,,,,,,,,,,,,,,,,,,,,,,,,,Pilot5,001,2019_Nov_19_1145,test_final,3.1.5,60.02627950524162,
,,,,6,0,6,0,0,0,0,0,,,,,,,,,,,,,,,,,,,,,,,,,,,,,,,,,,,,,,,102.0159136000002,None,xnzs,"['x', 'n', 'z', 's']","[0.7452533000032417, 0.9857789000016055, 1.2164910999999847, 1.5144500000023982, 1.8484538000047905]",99.61890810000477,None,99.61890810000477,None,1,XNZS,99.61890810000477,None,,,,,,,,,,,,,,,,,,,,,,,,,,,,,,,,,,,,,,,,,,,,,,,,,,,,,,,,,,,,,,,,,,,,,,,,,,,,,,,,,,,,,,,,,,,,,,,,,,,,,,,,,,Pilot5,001,2019_Nov_19_1145,test_final,3.1.5,60.02627950524162,
,,,,6,0,6,0,1,0,1,0,,,,,,,,,,,,,,,,,,,,,,,,,,,,,,,,,,,,,,,103.3321466999987,None,,,,,,,,,,,,,,,,,,,,,,,,,,,,,,,,,,,,,,,,,,,,,,,,,,,,,,,,,,,,,,,,,,,,,,,,,,,,,,,,,,,,,,,,,,,,,,,,,,,,,,,,,,,,,,,,,,,,,Pilot5,001,2019_Nov_19_1145,test_final,3.1.5,60.02627950524162,
,,,,6,0,6,0,2,0,2,0,,,,,,,,,,,,,,,,,,,,,,,,,,,,,,,,,,,,,,,104.63072700000339,None,,,,,,,,,,,,,,,,,,,,,,,,,,,,,,,,,,,,,,,,,,,,,,,,,,,,,,,,,,,,,,,,,,,,,,,,,,,,,,,,,,,,,,,,,,,,,,,,,,,,,,,,,,,,,,,,,,,,,Pilot5,001,2019_Nov_19_1145,test_final,3.1.5,60.02627950524162,
,,,,6,0,6,0,3,0,3,0,,,,,,,,,,,,,,,,,,,,,,,,,,,,,,,,,,,,,,,105.92930080000224,None,,,,,,,,,,,,,,,,,,,,,,,,,,,,,,,,,,,,,,,,,,,,,,,,,,,,,,,,,,,,,,,,,,,,,,,,,,,,,,,,,,,,,,,,,,,,,,,,,,,,,,,,,,,,,,,,,,,,,Pilot5,001,2019_Nov_19_1145,test_final,3.1.5,60.02627950524162,
,,,,6,0,6,0,4,0,4,0,,,,,,,,,,,,,,,,,,,,,,,,,,,,,,,,,,,,,,,107.22807390000526,None,,,,,,,,,,,,,,,,,,,,,,,,,,,,,,,,,,,,,,,,,,,,,,,,,,,,,,,,,,,,,,,,,,,,,,,,,,,,,,,,,,,,,,,,,,,,,,,,,,,,,,,,,,,,,,,,,,,,,Pilot5,001,2019_Nov_19_1145,test_final,3.1.5,60.02627950524162,
,,,,7,0,7,0,0,0,0,0,,,,,,,,,,,,,,,,,,,,,,,,,,,,,,,,,,,,,,,111.5901823000022,None,zqjrh,"['z', 'q', 'j', 'r', 'h']","[0.9065336999992724, 1.3353544999990845, 1.719126199997845, 1.9104743999996572, 2.073994499995024, 2.5280208999975002]",108.50995830000466,None,108.50995830000466,None,1,ZQJRH,108.50995830000466,None,,,,,,,,,,,,,,,,,,,,,,,,,,,,,,,,,,,,,,,,,,,,,,,,,,,,,,,,,,,,,,,,,,,,,,,,,,,,,,,,,,,,,,,,,,,,,,,,,,,,,,,,,,Pilot5,001,2019_Nov_19_1145,test_final,3.1.5,60.02627950524162,
,,,,7,0,7,0,1,0,1,0,,,,,,,,,,,,,,,,,,,,,,,,,,,,,,,,,,,,,,,112.9062344000049,None,,,,,,,,,,,,,,,,,,,,,,,,,,,,,,,,,,,,,,,,,,,,,,,,,,,,,,,,,,,,,,,,,,,,,,,,,,,,,,,,,,,,,,,,,,,,,,,,,,,,,,,,,,,,,,,,,,,,,Pilot5,001,2019_Nov_19_1145,test_final,3.1.5,60.02627950524162,
,,,,7,0,7,0,2,0,2,0,,,,,,,,,,,,,,,,,,,,,,,,,,,,,,,,,,,,,,,114.20444030000363,None,,,,,,,,,,,,,,,,,,,,,,,,,,,,,,,,,,,,,,,,,,,,,,,,,,,,,,,,,,,,,,,,,,,,,,,,,,,,,,,,,,,,,,,,,,,,,,,,,,,,,,,,,,,,,,,,,,,,,Pilot5,001,2019_Nov_19_1145,test_final,3.1.5,60.02627950524162,
,,,,7,0,7,0,3,0,3,0,,,,,,,,,,,,,,,,,,,,,,,,,,,,,,,,,,,,,,,115.5030934000024,None,,,,,,,,,,,,,,,,,,,,,,,,,,,,,,,,,,,,,,,,,,,,,,,,,,,,,,,,,,,,,,,,,,,,,,,,,,,,,,,,,,,,,,,,,,,,,,,,,,,,,,,,,,,,,,,,,,,,,Pilot5,001,2019_Nov_19_1145,test_final,3.1.5,60.02627950524162,
,,,,7,0,7,0,4,0,4,0,,,,,,,,,,,,,,,,,,,,,,,,,,,,,,,,,,,,,,,116.80170980000548,None,,,,,,,,,,,,,,,,,,,,,,,,,,,,,,,,,,,,,,,,,,,,,,,,,,,,,,,,,,,,,,,,,,,,,,,,,,,,,,,,,,,,,,,,,,,,,,,,,,,,,,,,,,,,,,,,,,,,,Pilot5,001,2019_Nov_19_1145,test_final,3.1.5,60.02627950524162,
,,,,8,0,8,0,0,0,0,0,,,,,,,,,,,,,,,,,,,,,,,,,,,,,,,,,,,,,,,121.0981122000012,None,zrlqv,"['z', 'r', 'l', 'q', 'v']","[0.8209933000034653, 1.0997898999994504, 1.3483425000013085, 1.6620881999988342, 2.069321499999205, 2.4436318000007304]",118.10069400000066,None,118.10069400000066,None,1,ZRLQV,118.10069400000066,None,,,,,,,,,,,,,,,,,,,,,,,,,,,,,,,,,,,,,,,,,,,,,,,,,,,,,,,,,,,,,,,,,,,,,,,,,,,,,,,,,,,,,,,,,,,,,,,,,,,,,,,,,,Pilot5,001,2019_Nov_19_1145,test_final,3.1.5,60.02627950524162,
,,,,8,0,8,0,1,0,1,0,,,,,,,,,,,,,,,,,,,,,,,,,,,,,,,,,,,,,,,122.41320680000354,None,,,,,,,,,,,,,,,,,,,,,,,,,,,,,,,,,,,,,,,,,,,,,,,,,,,,,,,,,,,,,,,,,,,,,,,,,,,,,,,,,,,,,,,,,,,,,,,,,,,,,,,,,,,,,,,,,,,,,Pilot5,001,2019_Nov_19_1145,test_final,3.1.5,60.02627950524162,
,,,,8,0,8,0,2,0,2,0,,,,,,,,,,,,,,,,,,,,,,,,,,,,,,,,,,,,,,,123.71172940000542,None,,,,,,,,,,,,,,,,,,,,,,,,,,,,,,,,,,,,,,,,,,,,,,,,,,,,,,,,,,,,,,,,,,,,,,,,,,,,,,,,,,,,,,,,,,,,,,,,,,,,,,,,,,,,,,,,,,,,,Pilot5,001,2019_Nov_19_1145,test_final,3.1.5,60.02627950524162,
,,,,8,0,8,0,3,0,3,0,,,,,,,,,,,,,,,,,,,,,,,,,,,,,,,,,,,,,,,125.00989380000101,None,,,,,,,,,,,,,,,,,,,,,,,,,,,,,,,,,,,,,,,,,,,,,,,,,,,,,,,,,,,,,,,,,,,,,,,,,,,,,,,,,,,,,,,,,,,,,,,,,,,,,,,,,,,,,,,,,,,,,Pilot5,001,2019_Nov_19_1145,test_final,3.1.5,60.02627950524162,
,,,,8,0,8,0,4,0,4,0,,,,,,,,,,,,,,,,,,,,,,,,,,,,,,,,,,,,,,,126.30953859999863,None,,,,,,,,,,,,,,,,,,,,,,,,,,,,,,,,,,,,,,,,,,,,,,,,,,,,,,,,,,,,,,,,,,,,,,,,,,,,,,,,,,,,,,,,,,,,,,,,,,,,,,,,,,,,,,,,,,,,,Pilot5,001,2019_Nov_19_1145,test_final,3.1.5,60.02627950524162,
,,,,8,0,8,0,5,0,5,0,,,,,,,,,,,,,,,,,,,,,,,,,,,,,,,,,,,,,,,127.60849520000193,None,,,,,,,,,,,,,,,,,,,,,,,,,,,,,,,,,,,,,,,,,,,,,,,,,,,,,,,,,,,,,,,,,,,,,,,,,,,,,,,,,,,,,,,,,,,,,,,,,,,,,,,,,,,,,,,,,,,,,Pilot5,001,2019_Nov_19_1145,test_final,3.1.5,60.02627950524162,
,,,,9,0,9,0,0,0,0,0,,,,,,,,,,,,,,,,,,,,,,,,,,,,,,,,,,,,,,,132.67002100000536,None,qlxkrn,"['q', 'l', 'x', 'k', 'r', 'n']","[0.8374057999972138, 1.0719506999957957, 1.4391927999968175, 2.078637400001753, 2.362603499997931, 2.8234112999998615, 3.2035300999996252]",128.90685320000193,None,128.90685320000193,None,1,QLXKRN,128.90685320000193,None,,,,,,,,,,,,,,,,,,,,,,,,,,,,,,,,,,,,,,,,,,,,,,,,,,,,,,,,,,,,,,,,,,,,,,,,,,,,,,,,,,,,,,,,,,,,,,,,,,,,,,,,,,Pilot5,001,2019_Nov_19_1145,test_final,3.1.5,60.02627950524162,
,,,,9,0,9,0,1,0,1,0,,,,,,,,,,,,,,,,,,,,,,,,,,,,,,,,,,,,,,,133.98549540000386,None,,,,,,,,,,,,,,,,,,,,,,,,,,,,,,,,,,,,,,,,,,,,,,,,,,,,,,,,,,,,,,,,,,,,,,,,,,,,,,,,,,,,,,,,,,,,,,,,,,,,,,,,,,,,,,,,,,,,,Pilot5,001,2019_Nov_19_1145,test_final,3.1.5,60.02627950524162,
,,,,9,0,9,0,2,0,2,0,,,,,,,,,,,,,,,,,,,,,,,,,,,,,,,,,,,,,,,135.2843275999985,None,,,,,,,,,,,,,,,,,,,,,,,,,,,,,,,,,,,,,,,,,,,,,,,,,,,,,,,,,,,,,,,,,,,,,,,,,,,,,,,,,,,,,,,,,,,,,,,,,,,,,,,,,,,,,,,,,,,,,Pilot5,001,2019_Nov_19_1145,test_final,3.1.5,60.02627950524162,
,,,,9,0,9,0,3,0,3,0,,,,,,,,,,,,,,,,,,,,,,,,,,,,,,,,,,,,,,,136.5819663000002,None,,,,,,,,,,,,,,,,,,,,,,,,,,,,,,,,,,,,,,,,,,,,,,,,,,,,,,,,,,,,,,,,,,,,,,,,,,,,,,,,,,,,,,,,,,,,,,,,,,,,,,,,,,,,,,,,,,,,,Pilot5,001,2019_Nov_19_1145,test_final,3.1.5,60.02627950524162,
,,,,9,0,9,0,4,0,4,0,,,,,,,,,,,,,,,,,,,,,,,,,,,,,,,,,,,,,,,137.88114209999912,None,,,,,,,,,,,,,,,,,,,,,,,,,,,,,,,,,,,,,,,,,,,,,,,,,,,,,,,,,,,,,,,,,,,,,,,,,,,,,,,,,,,,,,,,,,,,,,,,,,,,,,,,,,,,,,,,,,,,,Pilot5,001,2019_Nov_19_1145,test_final,3.1.5,60.02627950524162,
,,,,9,0,9,0,5,0,5,0,,,,,,,,,,,,,,,,,,,,,,,,,,,,,,,,,,,,,,,139.1803022000022,None,,,,,,,,,,,,,,,,,,,,,,,,,,,,,,,,,,,,,,,,,,,,,,,,,,,,,,,,,,,,,,,,,,,,,,,,,,,,,,,,,,,,,,,,,,,,,,,,,,,,,,,,,,,,,,,,,,,,,Pilot5,001,2019_Nov_19_1145,test_final,3.1.5,60.02627950524162,
,,,,10,0,10,0,0,0,0,0,,,,,,,,,,,,,,,,,,,,,,,,,,,,,,,,,,,,,,,143.40905740000017,None,zjnrks,"['z', 'j', 'n', 'r', 'k', 's']","[0.8133203000033973, 1.0278889000037452, 1.4280297000004794, 1.641493700000865, 1.8290778000009595, 2.0274930000014137, 2.3967095999978483]",140.46187700000155,None,140.46187700000155,None,1,ZJNRKS,140.46187700000155,None,,,,,,,,,,,,,,,,,,,,,,,,,,,,,,,,,,,,,,,,,,,,,,,,,,,,,,,,,,,,,,,,,,,,,,,,,,,,,,,,,,,,,,,,,,,,,,,,,,,,,,,,,,Pilot5,001,2019_Nov_19_1145,test_final,3.1.5,60.02627950524162,
,,,,10,0,10,0,1,0,1,0,,,,,,,,,,,,,,,,,,,,,,,,,,,,,,,,,,,,,,,144.7249312999993,None,,,,,,,,,,,,,,,,,,,,,,,,,,,,,,,,,,,,,,,,,,,,,,,,,,,,,,,,,,,,,,,,,,,,,,,,,,,,,,,,,,,,,,,,,,,,,,,,,,,,,,,,,,,,,,,,,,,,,Pilot5,001,2019_Nov_19_1145,test_final,3.1.5,60.02627950524162,
,,,,10,0,10,0,2,0,2,0,,,,,,,,,,,,,,,,,,,,,,,,,,,,,,,,,,,,,,,146.02370060000248,None,,,,,,,,,,,,,,,,,,,,,,,,,,,,,,,,,,,,,,,,,,,,,,,,,,,,,,,,,,,,,,,,,,,,,,,,,,,,,,,,,,,,,,,,,,,,,,,,,,,,,,,,,,,,,,,,,,,,,Pilot5,001,2019_Nov_19_1145,test_final,3.1.5,60.02627950524162,
,,,,10,0,10,0,3,0,3,0,,,,,,,,,,,,,,,,,,,,,,,,,,,,,,,,,,,,,,,147.32208320000063,None,,,,,,,,,,,,,,,,,,,,,,,,,,,,,,,,,,,,,,,,,,,,,,,,,,,,,,,,,,,,,,,,,,,,,,,,,,,,,,,,,,,,,,,,,,,,,,,,,,,,,,,,,,,,,,,,,,,,,Pilot5,001,2019_Nov_19_1145,test_final,3.1.5,60.02627950524162,
,,,,10,0,10,0,4,0,4,0,,,,,,,,,,,,,,,,,,,,,,,,,,,,,,,,,,,,,,,148.6209544000012,None,,,,,,,,,,,,,,,,,,,,,,,,,,,,,,,,,,,,,,,,,,,,,,,,,,,,,,,,,,,,,,,,,,,,,,,,,,,,,,,,,,,,,,,,,,,,,,,,,,,,,,,,,,,,,,,,,,,,,Pilot5,001,2019_Nov_19_1145,test_final,3.1.5,60.02627950524162,
,,,,10,0,10,0,5,0,5,0,,,,,,,,,,,,,,,,,,,,,,,,,,,,,,,,,,,,,,,149.91744489999837,None,,,,,,,,,,,,,,,,,,,,,,,,,,,,,,,,,,,,,,,,,,,,,,,,,,,,,,,,,,,,,,,,,,,,,,,,,,,,,,,,,,,,,,,,,,,,,,,,,,,,,,,,,,,,,,,,,,,,,Pilot5,001,2019_Nov_19_1145,test_final,3.1.5,60.02627950524162,
,,,,10,0,10,0,6,0,6,0,,,,,,,,,,,,,,,,,,,,,,,,,,,,,,,,,,,,,,,151.2186742000049,None,,,,,,,,,,,,,,,,,,,,,,,,,,,,,,,,,,,,,,,,,,,,,,,,,,,,,,,,,,,,,,,,,,,,,,,,,,,,,,,,,,,,,,,,,,,,,,,,,,,,,,,,,,,,,,,,,,,,,Pilot5,001,2019_Nov_19_1145,test_final,3.1.5,60.02627950524162,
,,,,11,0,11,0,0,0,0,0,,,,,,,,,,,,,,,,,,,,,,,,,,,,,,,,,,,,,,,155.81379860000015,None,qhxrz,"['q', 'h', 'x', 'r', 'z']","[0.8402003000010154, 1.5258781000011368, 1.9060417000000598, 2.1855546000006143, 2.499582399999781, 2.738795900004334]",152.51718439999968,None,152.51718439999968,None,0,QHSXNRZ,152.51718439999968,None,,,,,,,,,,,,,,,,,,,,,,,,,,,,,,,,,,,,,,,,,,,,,,,,,,,,,,,,,,,,,,,,,,,,,,,,,,,,,,,,,,,,,,,,,,,,,,,,,,,,,,,,,,Pilot5,001,2019_Nov_19_1145,test_final,3.1.5,60.02627950524162,
,,,,11,0,11,0,1,0,1,0,,,,,,,,,,,,,,,,,,,,,,,,,,,,,,,,,,,,,,,157.11265300000377,156.5975885000007,,,,,,,,,,,,,,,,,,,,,,,,,,,,,,,,,,,,,,,,,,,,,,,,,,,,,,,,,,,,,,,,,,,,,,,,,,,,,,,,,,,,,,,,,,,,,,,,,,,,,,,,,,,,,,,,,,,,,Pilot5,001,2019_Nov_19_1145,test_final,3.1.5,60.02627950524162,
,,,,11,0,11,0,2,0,2,0,,,,,,,,,,,,,,,,,,,,,,,,,,,,,,,,,,,,,,,158.4112729000044,157.89310990000376,,,,,,,,,,,,,,,,,,,,,,,,,,,,,,,,,,,,,,,,,,,,,,,,,,,,,,,,,,,,,,,,,,,,,,,,,,,,,,,,,,,,,,,,,,,,,,,,,,,,,,,,,,,,,,,,,,,,,Pilot5,001,2019_Nov_19_1145,test_final,3.1.5,60.02627950524162,
,,,,11,0,11,0,3,0,3,0,,,,,,,,,,,,,,,,,,,,,,,,,,,,,,,,,,,,,,,159.7103744000051,159.19265770000493,,,,,,,,,,,,,,,,,,,,,,,,,,,,,,,,,,,,,,,,,,,,,,,,,,,,,,,,,,,,,,,,,,,,,,,,,,,,,,,,,,,,,,,,,,,,,,,,,,,,,,,,,,,,,,,,,,,,,Pilot5,001,2019_Nov_19_1145,test_final,3.1.5,60.02627950524162,
,,,,11,0,11,0,4,0,4,0,,,,,,,,,,,,,,,,,,,,,,,,,,,,,,,,,,,,,,,161.00884280000173,160.49547500000335,,,,,,,,,,,,,,,,,,,,,,,,,,,,,,,,,,,,,,,,,,,,,,,,,,,,,,,,,,,,,,,,,,,,,,,,,,,,,,,,,,,,,,,,,,,,,,,,,,,,,,,,,,,,,,,,,,,,,Pilot5,001,2019_Nov_19_1145,test_final,3.1.5,60.02627950524162,
,,,,11,0,11,0,5,0,5,0,,,,,,,,,,,,,,,,,,,,,,,,,,,,,,,,,,,,,,,162.30772080000315,161.79318960000091,,,,,,,,,,,,,,,,,,,,,,,,,,,,,,,,,,,,,,,,,,,,,,,,,,,,,,,,,,,,,,,,,,,,,,,,,,,,,,,,,,,,,,,,,,,,,,,,,,,,,,,,,,,,,,,,,,,,,Pilot5,001,2019_Nov_19_1145,test_final,3.1.5,60.02627950524162,
,,,,11,0,11,0,6,0,6,0,,,,,,,,,,,,,,,,,,,,,,,,,,,,,,,,,,,,,,,163.60623070000293,163.09091930000432,,,,,,,,,,,,,,,,,,,,,,,,,,,,,,,,,,,,,,,,,,,,,,,,,,,,,,,,,,,,,,,,,,,,,,,,,,,,,,,,,,,,,,,,,,,,,,,,,,,,,,,,,,,,,,,,,,,,,Pilot5,001,2019_Nov_19_1145,test_final,3.1.5,60.02627950524162,
,,,,12,0,12,0,0,0,0,0,,,,,,,,,,,,,,,,,,,,,,,,,,,,,,,,,,,,,,,169.4172236000013,None,jnvkhz,"['j', 'n', 'v', 'k', 'h', 'z']","[0.796558100002585, 1.0278929999985849, 1.4068224000002374, 2.5330398000005516, 2.8462085999999545, 3.6769811999984086, 3.952591300003405]",164.9052703000052,None,164.9052703000052,None,0,JNVKHZX,164.9052703000052,None,,,,,,,,,,,,,,,,,,,,,,,,,,,,,,,,,,,,,,,,,,,,,,,,,,,,,,,,,,,,,,,,,,,,,,,,,,,,,,,,,,,,,,,,,,,,,,,,,,,,,,,,,,Pilot5,001,2019_Nov_19_1145,test_final,3.1.5,60.02627950524162,
,,,,12,0,12,0,1,0,1,0,,,,,,,,,,,,,,,,,,,,,,,,,,,,,,,,,,,,,,,170.71587240000372,170.20232720000058,,,,,,,,,,,,,,,,,,,,,,,,,,,,,,,,,,,,,,,,,,,,,,,,,,,,,,,,,,,,,,,,,,,,,,,,,,,,,,,,,,,,,,,,,,,,,,,,,,,,,,,,,,,,,,,,,,,,,Pilot5,001,2019_Nov_19_1145,test_final,3.1.5,60.02627950524162,
,,,,12,0,12,0,2,0,2,0,,,,,,,,,,,,,,,,,,,,,,,,,,,,,,,,,,,,,,,172.01465520000056,171.50113319999946,,,,,,,,,,,,,,,,,,,,,,,,,,,,,,,,,,,,,,,,,,,,,,,,,,,,,,,,,,,,,,,,,,,,,,,,,,,,,,,,,,,,,,,,,,,,,,,,,,,,,,,,,,,,,,,,,,,,,Pilot5,001,2019_Nov_19_1145,test_final,3.1.5,60.02627950524162,
,,,,12,0,12,0,3,0,3,0,,,,,,,,,,,,,,,,,,,,,,,,,,,,,,,,,,,,,,,173.31353479999962,172.7985234000007,,,,,,,,,,,,,,,,,,,,,,,,,,,,,,,,,,,,,,,,,,,,,,,,,,,,,,,,,,,,,,,,,,,,,,,,,,,,,,,,,,,,,,,,,,,,,,,,,,,,,,,,,,,,,,,,,,,,,Pilot5,001,2019_Nov_19_1145,test_final,3.1.5,60.02627950524162,
,,,,12,0,12,0,4,0,4,0,,,,,,,,,,,,,,,,,,,,,,,,,,,,,,,,,,,,,,,174.6122727000038,174.09798880000017,,,,,,,,,,,,,,,,,,,,,,,,,,,,,,,,,,,,,,,,,,,,,,,,,,,,,,,,,,,,,,,,,,,,,,,,,,,,,,,,,,,,,,,,,,,,,,,,,,,,,,,,,,,,,,,,,,,,,Pilot5,001,2019_Nov_19_1145,test_final,3.1.5,60.02627950524162,
,,,,12,0,12,0,5,0,5,0,,,,,,,,,,,,,,,,,,,,,,,,,,,,,,,,,,,,,,,175.91087350000453,175.3984064000033,,,,,,,,,,,,,,,,,,,,,,,,,,,,,,,,,,,,,,,,,,,,,,,,,,,,,,,,,,,,,,,,,,,,,,,,,,,,,,,,,,,,,,,,,,,,,,,,,,,,,,,,,,,,,,,,,,,,,Pilot5,001,2019_Nov_19_1145,test_final,3.1.5,60.02627950524162,
,,,,12,0,12,0,6,0,6,0,,,,,,,,,,,,,,,,,,,,,,,,,,,,,,,,,,,,,,,177.20954809999967,176.6950055000052,,,,,,,,,,,,,,,,,,,,,,,,,,,,,,,,,,,,,,,,,,,,,,,,,,,,,,,,,,,,,,,,,,,,,,,,,,,,,,,,,,,,,,,,,,,,,,,,,,,,,,,,,,,,,,,,,,,,,Pilot5,001,2019_Nov_19_1145,test_final,3.1.5,60.02627950524162,
,,,,13,0,13,0,0,0,0,0,,,,,,,,,,,,,,,,,,,,,,,,,,,,,,,,,,,,,,,183.28697190000094,None,kzqvjhr,"['k', 'z', 'q', 'v', 'j', 'h', 'r']","[1.4384184000009554, 2.0864677999998094, 2.5213358999972115, 2.6571060999995098, 3.0624084000010043, 3.2824465000012424, 3.9503398000015295, 4.223378800001228]",178.50822500000504,None,178.50822500000504,None,1,KZQVJHR,178.50822500000504,None,,,,,,,,,,,,,,,,,,,,,,,,,,,,,,,,,,,,,,,,,,,,,,,,,,,,,,,,,,,,,,,,,,,,,,,,,,,,,,,,,,,,,,,,,,,,,,,,,,,,,,,,,,Pilot5,001,2019_Nov_19_1145,test_final,3.1.5,60.02627950524162,
,,,,13,0,13,0,1,0,1,0,,,,,,,,,,,,,,,,,,,,,,,,,,,,,,,,,,,,,,,184.6023161999983,None,,,,,,,,,,,,,,,,,,,,,,,,,,,,,,,,,,,,,,,,,,,,,,,,,,,,,,,,,,,,,,,,,,,,,,,,,,,,,,,,,,,,,,,,,,,,,,,,,,,,,,,,,,,,,,,,,,,,,Pilot5,001,2019_Nov_19_1145,test_final,3.1.5,60.02627950524162,
,,,,13,0,13,0,2,0,2,0,,,,,,,,,,,,,,,,,,,,,,,,,,,,,,,,,,,,,,,185.90121920000092,None,,,,,,,,,,,,,,,,,,,,,,,,,,,,,,,,,,,,,,,,,,,,,,,,,,,,,,,,,,,,,,,,,,,,,,,,,,,,,,,,,,,,,,,,,,,,,,,,,,,,,,,,,,,,,,,,,,,,,Pilot5,001,2019_Nov_19_1145,test_final,3.1.5,60.02627950524162,
,,,,13,0,13,0,3,0,3,0,,,,,,,,,,,,,,,,,,,,,,,,,,,,,,,,,,,,,,,187.19976440000028,None,,,,,,,,,,,,,,,,,,,,,,,,,,,,,,,,,,,,,,,,,,,,,,,,,,,,,,,,,,,,,,,,,,,,,,,,,,,,,,,,,,,,,,,,,,,,,,,,,,,,,,,,,,,,,,,,,,,,,Pilot5,001,2019_Nov_19_1145,test_final,3.1.5,60.02627950524162,
,,,,13,0,13,0,4,0,4,0,,,,,,,,,,,,,,,,,,,,,,,,,,,,,,,,,,,,,,,188.49863980000373,None,,,,,,,,,,,,,,,,,,,,,,,,,,,,,,,,,,,,,,,,,,,,,,,,,,,,,,,,,,,,,,,,,,,,,,,,,,,,,,,,,,,,,,,,,,,,,,,,,,,,,,,,,,,,,,,,,,,,,Pilot5,001,2019_Nov_19_1145,test_final,3.1.5,60.02627950524162,
,,,,13,0,13,0,5,0,5,0,,,,,,,,,,,,,,,,,,,,,,,,,,,,,,,,,,,,,,,189.780620000005,None,,,,,,,,,,,,,,,,,,,,,,,,,,,,,,,,,,,,,,,,,,,,,,,,,,,,,,,,,,,,,,,,,,,,,,,,,,,,,,,,,,,,,,,,,,,,,,,,,,,,,,,,,,,,,,,,,,,,,Pilot5,001,2019_Nov_19_1145,test_final,3.1.5,60.02627950524162,
,,,,13,0,13,0,6,0,6,0,,,,,,,,,,,,,,,,,,,,,,,,,,,,,,,,,,,,,,,191.0940999000013,None,,,,,,,,,,,,,,,,,,,,,,,,,,,,,,,,,,,,,,,,,,,,,,,,,,,,,,,,,,,,,,,,,,,,,,,,,,,,,,,,,,,,,,,,,,,,,,,,,,,,,,,,,,,,,,,,,,,,,Pilot5,001,2019_Nov_19_1145,test_final,3.1.5,60.02627950524162,
,,,,,,,,,,,,,,,,,,,,,,,,,,,,,,,,,,,,,,,,,,,,,,,,,,,,ntrzhlkr,"['n', 't', 'r', 'z', 'h', 'l', 'k', 'r']","[1.0528948999999557, 1.328965499997139, 1.6094301999983145, 1.955030600001919, 2.1836309999998775, 2.5317041000016616, 2.83818710000196, 3.540436999996018, 4.715634499996668]",192.39255609999964,None,192.39255609999964,None,0,NTRZHLK,192.39255609999964,None,197.67300120000436,None,space,1.9256631999960518,197.67300120000436,None,,,,,,,,,,,,,,,,,,,,,,,,,,,,,,,,,,,,,,,,,,,,,,,,,,,,,,,,,,,,,,,,,,,,,,,,,,,,,,,,,,,,,,,,,,,,,,,,,,,,Pilot5,001,2019_Nov_19_1145,test_final,3.1.5,60.02627950524162,
Practice,3,(7x2) - 5,9,,,,,,,,,0,0,0,0,0,0,0,2,,,,,,,,,,,,,,,,,,,,,,,,,,,,,,,,,,,,,,,,,,,,,,,,,,9,200.17114030000084,None,['9'],0,[1.6165058000042336],200.17114030000084,None,200.17114030000084,None,[1.6165058000042336],200.17114030000084,None,202.33514310000464,None,,,,,,,,,,,,,,,,,,,,,,,,,,,,,,,,,,,,,,,,,,,,,,,,,,,,,,,,,,,,,,,,,,,,,,,,,,,,,,,,,,,,,Pilot5,001,2019_Nov_19_1145,test_final,3.1.5,60.02627950524162,
Practice,6,(2x6) - 8,4,,,,,,,,,0,0,0,0,0,1,1,5,,,,,,,,,,,,,,,,,,,,,,,,,,,,,,,,,,,,,,,,,,,,,,,,,,4,203.84929710000142,None,['4'],0,[1.806403800001135],203.84929710000142,None,203.84929710000142,None,"[1.6165058000042336, 1.806403800001135]",203.84929710000142,None,206.19766789999994,None,,,,,,,,,,,,,,,,,,,,,,,,,,,,,,,,,,,,,,,,,,,,,,,,,,,,,,,,,,,,,,,,,,,,,,,,,,,,,,,,,,,,,Pilot5,001,2019_Nov_19_1145,test_final,3.1.5,60.02627950524162,
Practice,10,(8/4) + 3,5,,,,,,,,,0,0,0,0,0,2,2,9,,,,,,,,,,,,,,,,,,,,,,,,,,,,,,,,,,,,,,,,,,,,,,,,,,5,207.6956136000008,None,['5'],0,[2.1192921999972896],207.6956136000008,None,207.6956136000008,None,"[1.6165058000042336, 1.806403800001135, 2.1192921999972896]",207.6956136000008,None,210.3607342000032,None,,,,,,,,,,,,,,,,,,,,,,,,,,,,,,,,,,,,,,,,,,,,,,,,,,,,,,,,,,,,,,,,,,,,,,,,,,,,,,,,,,,,,Pilot5,001,2019_Nov_19_1145,test_final,3.1.5,60.02627950524162,
Practice,14,(6/3) + 4 ,6,,,,,,,,,0,0,0,0,0,3,3,13,,,,,,,,,,,,,,,,,,,,,,,,,,,,,,,,,,,,,,,,,,,,,,,,,,6,211.85888200000045,None,['6'],0,[1.4708780000000843],211.85888200000045,None,211.85888200000045,None,"[1.6165058000042336, 1.806403800001135, 2.1192921999972896, 1.4708780000000843]",211.85888200000045,None,213.87255770000047,None,,,,,,,,,,,,,,,,,,,,,,,,,,,,,,,,,,,,,,,,,,,,,,,,,,,,,,,,,,,,,,,,,,,,,,,,,,,,,,,,,,,,,Pilot5,001,2019_Nov_19_1145,test_final,3.1.5,60.02627950524162,
Practice,1,(1x2) + 1,3,,,,,,,,,0,0,0,0,0,4,4,0,,,,,,,,,,,,,,,,,,,,,,,,,,,,,,,,,,,,,,,,,,,,,,,,,,3,215.37135359999957,None,['3'],0,[1.4306335000001127],215.37135359999957,None,215.37135359999957,None,"[1.6165058000042336, 1.806403800001135, 2.1192921999972896, 1.4708780000000843, 1.4306335000001127]",215.37135359999957,None,217.33669460000237,None,,,,,,,,,,,,,,,,,,,,,,,,,,,,,,,,,,,,,,,,,,,,,,,,,,,,,,,,,,,,,,,,,,,,,,,,,,,,,,,,,,,,,Pilot5,001,2019_Nov_19_1145,test_final,3.1.5,60.02627950524162,
Practice,15,(9/3) - 2,1,,,,,,,,,0,0,0,0,0,5,5,14,,,,,,,,,,,,,,,,,,,,,,,,,,,,,,,,,,,,,,,,,,,,,,,,,,1,218.8350516999999,None,['1'],0,[1.5380299999960698],218.8350516999999,None,218.8350516999999,None,"[1.6165058000042336, 1.806403800001135, 2.1192921999972896, 1.4708780000000843, 1.4306335000001127, 1.5380299999960698]",218.8350516999999,None,220.91654879999987,None,,,,,,,,,,,,,,,,,,,,,,,,,,,,,,,,,,,,,,,,,,,,,,,,,,,,,,,,,,,,,,,,,,,,,,,,,,,,,,,,,,,,,Pilot5,001,2019_Nov_19_1145,test_final,3.1.5,60.02627950524162,
Practice,9,(4/2) + 5,7,,,,,,,,,0,0,0,0,0,6,6,8,,,,,,,,,,,,,,,,,,,,,,,,,,,,,,,,,,,,,,,,,,,,,,,,,,7,222.41501280000375,None,['7'],0,[1.7615095999935875],222.41501280000375,None,222.41501280000375,None,"[1.6165058000042336, 1.806403800001135, 2.1192921999972896, 1.4708780000000843, 1.4306335000001127, 1.5380299999960698, 1.7615095999935875]",222.41501280000375,None,224.7120217000047,None,,,,,,,,,,,,,,,,,,,,,,,,,,,,,,,,,,,,,,,,,,,,,,,,,,,,,,,,,,,,,,,,,,,,,,,,,,,,,,,,,,,,,Pilot5,001,2019_Nov_19_1145,test_final,3.1.5,60.02627950524162,
Practice,13,(3x8) - 19 ,5,,,,,,,,,0,0,0,0,0,7,7,12,,,,,,,,,,,,,,,,,,,,,,,,,,,,,,,,,,,,,,,,,,,,,,,,,,7,226.21102480000263,None,['7'],0,[2.1991267999983393],226.21102480000263,None,226.21102480000263,None,"[1.6165058000042336, 1.806403800001135, 2.1192921999972896, 1.4708780000000843, 1.4306335000001127, 1.5380299999960698, 1.7615095999935875, 2.1991267999983393]",226.21102480000263,None,228.94194060000154,None,,,,,,,,,,,,,,,,,,,,,,,,,,,,,,,,,,,,,,,,,,,,,,,,,,,,,,,,,,,,,,,,,,,,,,,,,,,,,,,,,,,,,Pilot5,001,2019_Nov_19_1145,test_final,3.1.5,60.02627950524162,
Practice,4,(4x4) - 14,2,,,,,,,,,0,0,0,0,0,8,8,3,,,,,,,,,,,,,,,,,,,,,,,,,,,,,,,,,,,,,,,,,,,,,,,,,,2,230.44038490000094,None,['2'],0,[1.8190822000033222],230.44038490000094,None,230.44038490000094,None,"[1.6165058000042336, 1.806403800001135, 2.1192921999972896, 1.4708780000000843, 1.4306335000001127, 1.5380299999960698, 1.7615095999935875, 2.1991267999983393, 1.8190822000033222]",230.44038490000094,None,232.80436490000284,None,,,,,,,,,,,,,,,,,,,,,,,,,,,,,,,,,,,,,,,,,,,,,,,,,,,,,,,,,,,,,,,,,,,,,,,,,,,,,,,,,,,,,Pilot5,001,2019_Nov_19_1145,test_final,3.1.5,60.02627950524162,
Practice,2,(1/1) - 1,0,,,,,,,,,0,0,0,0,0,9,9,1,,,,,,,,,,,,,,,,,,,,,,,,,,,,,,,,,,,,,,,,,,,,,,,,,,0,234.30307170000015,None,['0'],0,[1.4278487999981735],234.30307170000015,None,234.30307170000015,None,"[1.6165058000042336, 1.806403800001135, 2.1192921999972896, 1.4708780000000843, 1.4306335000001127, 1.5380299999960698, 1.7615095999935875, 2.1991267999983393, 1.8190822000033222, 1.4278487999981735]",234.30307170000015,None,236.2675406000053,None,,,,,,,,,,,,,,,,,,,,,,,,,,,,,,,,,,,,,,,,,,,,,,,,,,,,,,,,,,,,,,,,,,,,,,,,,,,,,,,,,,,,,Pilot5,001,2019_Nov_19_1145,test_final,3.1.5,60.02627950524162,
Practice,8,(3/3) + 5,6,,,,,,,,,0,0,0,0,0,10,10,7,,,,,,,,,,,,,,,,,,,,,,,,,,,,,,,,,,,,,,,,,,,,,,,,,,6,237.76645930000086,None,['6'],0,[1.8102249000003212],237.76645930000086,None,237.76645930000086,None,"[1.6165058000042336, 1.806403800001135, 2.1192921999972896, 1.4708780000000843, 1.4306335000001127, 1.5380299999960698, 1.7615095999935875, 2.1991267999983393, 1.8190822000033222, 1.4278487999981735, 1.8102249000003212]",237.76645930000086,None,240.11299560000043,None,,,,,,,,,,,,,,,,,,,,,,,,,,,,,,,,,,,,,,,,,,,,,,,,,,,,,,,,,,,,,,,,,,,,,,,,,,,,,,,,,,,,,Pilot5,001,2019_Nov_19_1145,test_final,3.1.5,60.02627950524162,
Practice,7,(4x6) - 17,7,,,,,,,,,0,0,0,0,0,11,11,6,,,,,,,,,,,,,,,,,,,,,,,,,,,,,,,,,,,,,,,,,,,,,,,,,,6,241.61352579999948,None,['6'],0,[2.451082600004156],241.61352579999948,None,241.61352579999948,None,"[1.6165058000042336, 1.806403800001135, 2.1192921999972896, 1.4708780000000843, 1.4306335000001127, 1.5380299999960698, 1.7615095999935875, 2.1991267999983393, 1.8190822000033222, 1.4278487999981735, 1.8102249000003212, 2.451082600004156]",241.61352579999948,None,244.6097682000036,None,,,,,,,,,,,,,,,,,,,,,,,,,,,,,,,,,,,,,,,,,,,,,,,,,,,,,,,,,,,,,,,,,,,,,,,,,,,,,,,,,,,,,Pilot5,001,2019_Nov_19_1145,test_final,3.1.5,60.02627950524162,
Practice,5,(3/3) + 2,3,,,,,,,,,0,0,0,0,0,12,12,4,,,,,,,,,,,,,,,,,,,,,,,,,,,,,,,,,,,,,,,,,,,,,,,,,,3,246.1080024000039,None,['3'],0,[2.129287000003387],246.1080024000039,None,246.1080024000039,None,"[1.6165058000042336, 1.806403800001135, 2.1192921999972896, 1.4708780000000843, 1.4306335000001127, 1.5380299999960698, 1.7615095999935875, 2.1991267999983393, 1.8190822000033222, 1.4278487999981735, 1.8102249000003212, 2.451082600004156, 2.129287000003387]",246.1080024000039,None,248.7730118000036,None,,,,,,,,,,,,,,,,,,,,,,,,,,,,,,,,,,,,,,,,,,,,,,,,,,,,,,,,,,,,,,,,,,,,,,,,,,,,,,,,,,,,,Pilot5,001,2019_Nov_19_1145,test_final,3.1.5,60.02627950524162,
Practice,11,(5x3) - 7,8,,,,,,,,,0,0,0,0,0,13,13,10,,,,,,,,,,,,,,,,,,,,,,,,,,,,,,,,,,,,,,,,,,,,,,,,,,8,250.2709027000019,None,['8'],0,[2.159668699998292],250.2709027000019,None,250.2709027000019,None,"[1.6165058000042336, 1.806403800001135, 2.1192921999972896, 1.4708780000000843, 1.4306335000001127, 1.5380299999960698, 1.7615095999935875, 2.1991267999983393, 1.8190822000033222, 1.4278487999981735, 1.8102249000003212, 2.451082600004156, 2.129287000003387, 2.159668699998292]",250.2709027000019,None,252.96869210000295,None,,,,,,,,,,,,,,,,,,,,,,,,,,,,,,,,,,,,,,,,,,,,,,,,,,,,,,,,,,,,,,,,,,,,,,,,,,,,,,,,,,,,,Pilot5,001,2019_Nov_19_1145,test_final,3.1.5,60.02627950524162,
Practice,12,(8/2) + 4,8,,,,,,,,,0,0,0,0,0,14,14,11,,,,,,,,,,,,,,,,,,,,,,,,,,,,,,,,,,,,,,,,,,,,,,,,,,8,254.4664402999988,None,['8'],0,[2.2905248000024585],254.4664402999988,None,254.4664402999988,None,"[1.6165058000042336, 1.806403800001135, 2.1192921999972896, 1.4708780000000843, 1.4306335000001127, 1.5380299999960698, 1.7615095999935875, 2.1991267999983393, 1.8190822000033222, 1.4278487999981735, 1.8102249000003212, 2.451082600004156, 2.129287000003387, 2.159668699998292, 2.2905248000024585]",254.4664402999988,None,257.2975230000011,None,,,,,,,,,,,,,,,,,,,,,,,,,,,,,,,,,,,,,,,,,,,,,,,,,,,,,,,,,,,,,,,,,,,,,,,,,,,,,,,,,,,,,Pilot5,001,2019_Nov_19_1145,test_final,3.1.5,60.02627950524162,
,,,,,,,,,,,,0,0,0,0,,,,,,,,,,,,,,,,,,,,,,,,,,,,,,,,,,,,,,,,,,,,,,,,,,,,,,,,,,,,,,,,,,,,,0.8666666666666667,28.030098700000963,1.8686732466667308,1.5803631416022426,0.3245882665369819,2.706110974332144,258.7966277000014,None,space,2.5894914000018616,258.7966277000014,None,,,,,,,,,,,,,,,,,,,,,,,,,,,,,,,,,,,,,,,,,,,,,,,,,,,,,,,,,,,,,,,,,,,,,,,,,Pilot5,001,2019_Nov_19_1145,test_final,3.1.5,60.02627950524162,
,,,,,,,,,,,,,,,,,,,,,,,,,,,,,,,,,,,,,,,,,,,,,,,,,,,,,,,,,,,,,,,,,,,,,,,,,,,,,,,,,,,,,,,,,,,,,,,,261.9431781000021,None,space,5.199846299998171,261.9431781000021,None,,,,,,,,,,,,,,,,,,,,,,,,,,,,,,,,,,,,,,,,,,,,,,,,,,,,,,,,,,,,,,,,,,,Pilot5,001,2019_Nov_19_1145,test_final,3.1.5,60.02627950524162,
Practice,4,(4x4) - 14,2,,,,,,,,,,,,,,,,,0,0,0,0,0,0,0,0,0,0,0,3,,,,,,,,,,,,,,,,,,,,,,,,,,,,,,,,,,,,,,2,,,,,,,,,,,,,,,,,,,,,,,,,,,,,,,,,267.73796109999967,None,['2'],0,[1.6163715000002412],267.73796109999967,None,267.73796109999967,None,267.73796109999967,None,1,269.4611981000053,None,269.4611981000053,None,,,,,,,,,,,,,,,,,,,,,,,,,,,,,,,,,,,,,,,,,,,,,,,,,,,Pilot5,001,2019_Nov_19_1145,test_final,3.1.5,60.02627950524162,
,,,,,,,,,,,,,,,,,,,,0,0,0,0,0,0,0,0,,,,,,,,,,,,,,,,,,,,,,,,,,,,,,,,,,,,,,,,,,,,,,,,,,,,,,,,,,,,,,,,,,,,,,,,,,,,,,,,,,,,,,,,,,,270.80110140000033,None,,,,,,,,,,,,,,,,,,,,,,,,,,,,,,,,,,,,,,,,,,,,,,,,,Pilot5,001,2019_Nov_19_1145,test_final,3.1.5,60.02627950524162,
Practice,8,(3/3) + 5,6,,,,,,,,,,,,,,,,,0,0,0,0,1,0,1,0,0,0,0,7,,,,,,,,,,,,,,,,,,,,,,,,,,,,,,,,,,,,,,,,,,,,,,,,,,,,,,,,,,,,,,,,,,,,,,,272.1162054000015,None,None,0,,272.1162054000015,None,272.1162054000015,None,272.1162054000015,None,0,274.8849343000038,None,274.8849343000038,None,,,,,,,,,,,,,,,,,,,,,,,,,,,,,,,,,,,,,,,,,,,,,,,,,,,Pilot5,001,2019_Nov_19_1145,test_final,3.1.5,60.02627950524162,
Practice,14,(6/3) + 4 ,6,,,,,,,,,,,,,,,,,0,0,0,0,1,0,1,0,0,1,1,13,,,,,,,,,,,,,,,,,,,,,,,,,,,,,,,,,,,,,,6,,,,,,,,,,,,,,,,,,,,,,,,,,,,,,,,,276.22862290000194,None,['6'],0,[1.6035424999936367],276.22862290000194,None,276.22862290000194,None,276.22862290000194,None,1,277.9109318000046,None,277.9109318000046,None,,,,,,,,,,,,,,,,,,,,,,,,,,,,,,,,,,,,,,,,,,,,,,,,,,,Pilot5,001,2019_Nov_19_1145,test_final,3.1.5,60.02627950524162,
,,,,,,,,,,,,,,,,,,,,0,0,0,0,1,0,1,0,,,,,,,,,,,,,,,,,,,,,,,,,,,,,,,,,,,,,,,,,,,,,,,,,,,,,,,,,,,,,,,,,,,,,,,,,,,,,,,,,,,,,,,,,,,279.2428565000009,None,,,,,,,,,,,,,,,,,,,,,,,,,,,,,,,,,,,,,,,,,,,,,,,,,Pilot5,001,2019_Nov_19_1145,test_final,3.1.5,60.02627950524162,
,,,,,,,,,,,,,,,,,,,,0,0,0,0,,,,,,,,,,,,,,,,,,,,,,,,,,,,,,,,,,,,,,,,,,,,,,,,,,,,,,,,,,,,,,,,,,,,,,,,,,,,,,,,,,,,,,,,,,,,,,,,,lr,"['l', 'r']",0,"[11.081019500001275, 11.500262699999439, 12.923111999996763]",280.52429320000374,None,280.52429320000374,None,280.52429320000374,None,1,294.0119347,None,,,,,,,,,,,,,,,,,,,,,,,,,,,,,,,,,,,,Pilot5,001,2019_Nov_19_1145,test_final,3.1.5,60.02627950524162,
Practice,2,(1/1) - 1,0,,,,,,,,,,,,,,,,,1,0,1,0,0,0,0,0,0,0,0,1,,,,,,,,,,,,,,,,,,,,,,,,,,,,,,,,,,,,,,0,,,,,,,,,,,,,,,,,,,,,,,,,,,,,,,,,295.5595930999989,None,['0'],0,[1.2910671999998158],295.5595930999989,None,295.5595930999989,None,295.5595930999989,None,1,296.9510131999996,None,296.9510131999996,None,,,,,,,,,,,,,,,,,,,,,,,,,,,,,,,,,,,,,,,,,,,,,,,,,,,Pilot5,001,2019_Nov_19_1145,test_final,3.1.5,60.02627950524162,
,,,,,,,,,,,,,,,,,,,,1,0,1,0,0,0,0,0,,,,,,,,,,,,,,,,,,,,,,,,,,,,,,,,,,,,,,,,,,,,,,,,,,,,,,,,,,,,,,,,,,,,,,,,,,,,,,,,,,,,,,,,,,,298.2907564999987,None,,,,,,,,,,,,,,,,,,,,,,,,,,,,,,,,,,,,,,,,,,,,,,,,,Pilot5,001,2019_Nov_19_1145,test_final,3.1.5,60.02627950524162,
Practice,9,(4/2) + 5,7,,,,,,,,,,,,,,,,,1,0,1,0,1,0,1,0,0,0,0,8,,,,,,,,,,,,,,,,,,,,,,,,,,,,,,,,,,,,,,7,,,,,,,,,,,,,,,,,,,,,,,,,,,,,,,,,299.5892690000037,None,['7'],0,[2.053066000000399],299.5892690000037,None,299.5892690000037,None,299.5892690000037,None,1,301.74434530000144,None,301.74434530000144,None,,,,,,,,,,,,,,,,,,,,,,,,,,,,,,,,,,,,,,,,,,,,,,,,,,,Pilot5,001,2019_Nov_19_1145,test_final,3.1.5,60.02627950524162,
,,,,,,,,,,,,,,,,,,,,1,0,1,0,1,0,1,0,,,,,,,,,,,,,,,,,,,,,,,,,,,,,,,,,,,,,,,,,,,,,,,,,,,,,,,,,,,,,,,,,,,,,,,,,,,,,,,,,,,,,,,,,,,303.0849793000016,None,,,,,,,,,,,,,,,,,,,,,,,,,,,,,,,,,,,,,,,,,,,,,,,,,Pilot5,001,2019_Nov_19_1145,test_final,3.1.5,60.02627950524162,
,,,,,,,,,,,,,,,,,,,,1,0,1,0,,,,,,,,,,,,,,,,,,,,,,,,,,,,,,,,,,,,,,,,,,,,,,,,,,,,,,,,,,,,,,,,,,,,,,,,,,,,,,,,,,,,,,,,,,,,,,,,,h,['h'],0,"[1.5813572000042768, 2.46741540000221]",304.3681685000047,None,304.3681685000047,None,304.3681685000047,None,0,307.3966358000034,None,,,,,,,,,,,,,,,,,,,,,,,,,,,,,,,,,,,,Pilot5,001,2019_Nov_19_1145,test_final,3.1.5,60.02627950524162,
Practice,1,(1x2) + 1,3,,,,,,,,,,,,,,,,,2,0,2,0,0,0,0,0,0,0,0,0,,,,,,,,,,,,,,,,,,,,,,,,,,,,,,,,,,,,,,3,,,,,,,,,,,,,,,,,,,,,,,,,,,,,,,,,308.9133890000012,None,['3'],0,[1.6993550000042887],308.9133890000012,None,308.9133890000012,None,308.9133890000012,None,1,310.70434280000336,None,310.70434280000336,None,,,,,,,,,,,,,,,,,,,,,,,,,,,,,,,,,,,,,,,,,,,,,,,,,,,Pilot5,001,2019_Nov_19_1145,test_final,3.1.5,60.02627950524162,
,,,,,,,,,,,,,,,,,,,,2,0,2,0,0,0,0,0,,,,,,,,,,,,,,,,,,,,,,,,,,,,,,,,,,,,,,,,,,,,,,,,,,,,,,,,,,,,,,,,,,,,,,,,,,,,,,,,,,,,,,,,,,,312.04328050000186,None,,,,,,,,,,,,,,,,,,,,,,,,,,,,,,,,,,,,,,,,,,,,,,,,,Pilot5,001,2019_Nov_19_1145,test_final,3.1.5,60.02627950524162,
Practice,9,(4/2) + 5,7,,,,,,,,,,,,,,,,,2,0,2,0,1,0,1,0,0,0,0,8,,,,,,,,,,,,,,,,,,,,,,,,,,,,,,,,,,,,,,7,,,,,,,,,,,,,,,,,,,,,,,,,,,,,,,,,313.35908900000504,None,['7'],0,[1.9265739000038593],313.35908900000504,None,313.35908900000504,None,313.35908900000504,None,1,315.38165100000333,None,315.38165100000333,None,,,,,,,,,,,,,,,,,,,,,,,,,,,,,,,,,,,,,,,,,,,,,,,,,,,Pilot5,001,2019_Nov_19_1145,test_final,3.1.5,60.02627950524162,
,,,,,,,,,,,,,,,,,,,,2,0,2,0,1,0,1,0,,,,,,,,,,,,,,,,,,,,,,,,,,,,,,,,,,,,,,,,,,,,,,,,,,,,,,,,,,,,,,,,,,,,,,,,,,,,,,,,,,,,,,,,,,,316.72191120000207,None,,,,,,,,,,,,,,,,,,,,,,,,,,,,,,,,,,,,,,,,,,,,,,,,,Pilot5,001,2019_Nov_19_1145,test_final,3.1.5,60.02627950524162,
,,,,,,,,,,,,,,,,,,,,2,0,2,0,,,,,,,,,,,,,,,,,,,,,,,,,,,,,,,,,,,,,,,,,,,,,,,,,,,,,,,,,,,,,,,,,,,,,,,,,,,,,,,,,,,,,,,,,,,,,,,,,kn,"['k', 'n']",0,"[1.1128843000042252, 1.6509731000041938, 2.300076800005627]",318.0047908999986,None,318.0047908999986,None,318.0047908999986,None,1,320.868607000004,None,,,,,,,,,,,,,,,,,,,,,,,,,,,,,,,,,,,,Pilot5,001,2019_Nov_19_1145,test_final,3.1.5,60.02627950524162,
Practice,9,(4/2) + 5,7,,,,,,,,,,,,,,,,,3,0,3,0,0,0,0,0,0,0,0,8,,,,,,,,,,,,,,,,,,,,,,,,,,,,,,,,,,,,,,7,,,,,,,,,,,,,,,,,,,,,,,,,,,,,,,,,322.40060250000533,None,['7'],0,[1.7264169999980368],322.40060250000533,None,322.40060250000533,None,322.40060250000533,None,1,324.2320473,None,324.2320473,None,,,,,,,,,,,,,,,,,,,,,,,,,,,,,,,,,,,,,,,,,,,,,,,,,,,Pilot5,001,2019_Nov_19_1145,test_final,3.1.5,60.02627950524162,
,,,,,,,,,,,,,,,,,,,,3,0,3,0,0,0,0,0,,,,,,,,,,,,,,,,,,,,,,,,,,,,,,,,,,,,,,,,,,,,,,,,,,,,,,,,,,,,,,,,,,,,,,,,,,,,,,,,,,,,,,,,,,,325.5793522000022,None,,,,,,,,,,,,,,,,,,,,,,,,,,,,,,,,,,,,,,,,,,,,,,,,,Pilot5,001,2019_Nov_19_1145,test_final,3.1.5,60.02627950524162,
Practice,10,(8/4) + 3,5,,,,,,,,,,,,,,,,,3,0,3,0,1,0,1,0,0,0,0,9,,,,,,,,,,,,,,,,,,,,,,,,,,,,,,,,,,,,,,,,,,,,,,,,,,,,,,,,,,,,,,,,,,,,,,,326.8791121000031,None,None,0,,326.8791121000031,None,326.8791121000031,None,326.8791121000031,None,0,329.6466722000041,None,329.6466722000041,None,,,,,,,,,,,,,,,,,,,,,,,,,,,,,,,,,,,,,,,,,,,,,,,,,,,Pilot5,001,2019_Nov_19_1145,test_final,3.1.5,60.02627950524162,
Practice,3,(7x2) - 5,9,,,,,,,,,,,,,,,,,3,0,3,0,1,0,1,0,0,1,1,2,,,,,,,,,,,,,,,,,,,,,,,,,,,,,,,,,,,,,,9,,,,,,,,,,,,,,,,,,,,,,,,,,,,,,,,,330.99142170000414,None,['9'],0,[1.9417049999974552],330.99142170000414,None,330.99142170000414,None,330.99142170000414,None,1,332.9950405000054,None,332.9950405000054,None,,,,,,,,,,,,,,,,,,,,,,,,,,,,,,,,,,,,,,,,,,,,,,,,,,,Pilot5,001,2019_Nov_19_1145,test_final,3.1.5,60.02627950524162,
,,,,,,,,,,,,,,,,,,,,3,0,3,0,1,0,1,0,,,,,,,,,,,,,,,,,,,,,,,,,,,,,,,,,,,,,,,,,,,,,,,,,,,,,,,,,,,,,,,,,,,,,,,,,,,,,,,,,,,,,,,,,,,334.32265480000206,None,,,,,,,,,,,,,,,,,,,,,,,,,,,,,,,,,,,,,,,,,,,,,,,,,Pilot5,001,2019_Nov_19_1145,test_final,3.1.5,60.02627950524162,
,,,,,,,,,,,,,,,,,,,,3,0,3,0,,,,,,,,,,,,,,,,,,,,,,,,,,,,,,,,,,,,,,,,,,,,,,,,,,,,,,,,,,,,,,,,,,,,,,,,,,,,,,,,,,,,,,,,,,,,,,,,,k,['k'],0,"[0.8860282999958145, 3.098650300002191]",335.6210376000017,None,335.6210376000017,None,335.6210376000017,None,0,339.2841042,None,,,,,,,,,,,,,,,,,,,,,,,,,,,,,,,,,,,,Pilot5,001,2019_Nov_19_1145,test_final,3.1.5,60.02627950524162,
Practice,15,(9/3) - 2,1,,,,,,,,,,,,,,,,,4,0,4,0,0,0,0,0,0,0,0,14,,,,,,,,,,,,,,,,,,,,,,,,,,,,,,,,,,,,,,1,,,,,,,,,,,,,,,,,,,,,,,,,,,,,,,,,340.8317934000006,None,['1'],0,[1.8710150000042631],340.8317934000006,None,340.8317934000006,None,340.8317934000006,None,1,342.8013801000052,None,342.8013801000052,None,,,,,,,,,,,,,,,,,,,,,,,,,,,,,,,,,,,,,,,,,,,,,,,,,,,Pilot5,001,2019_Nov_19_1145,test_final,3.1.5,60.02627950524162,
,,,,,,,,,,,,,,,,,,,,4,0,4,0,0,0,0,0,,,,,,,,,,,,,,,,,,,,,,,,,,,,,,,,,,,,,,,,,,,,,,,,,,,,,,,,,,,,,,,,,,,,,,,,,,,,,,,,,,,,,,,,,,,344.14477230000193,None,,,,,,,,,,,,,,,,,,,,,,,,,,,,,,,,,,,,,,,,,,,,,,,,,Pilot5,001,2019_Nov_19_1145,test_final,3.1.5,60.02627950524162,
Practice,7,(4x6) - 17,7,,,,,,,,,,,,,,,,,4,0,4,0,1,0,1,0,0,0,0,6,,,,,,,,,,,,,,,,,,,,,,,,,,,,,,,,,,,,,,,,,,,,,,,,,,,,,,,,,,,,,,,,,,,,,,,345.4609186000016,None,None,0,,345.4609186000016,None,345.4609186000016,None,345.4609186000016,None,0,348.21766500000376,None,348.21766500000376,None,,,,,,,,,,,,,,,,,,,,,,,,,,,,,,,,,,,,,,,,,,,,,,,,,,,Pilot5,001,2019_Nov_19_1145,test_final,3.1.5,60.02627950524162,
Practice,4,(4x4) - 14,2,,,,,,,,,,,,,,,,,4,0,4,0,1,0,1,0,0,1,1,3,,,,,,,,,,,,,,,,,,,,,,,,,,,,,,,,,,,,,,2,,,,,,,,,,,,,,,,,,,,,,,,,,,,,,,,,349.5398630999989,None,['2'],0,[1.5946848000021419],349.5398630999989,None,349.5398630999989,None,349.5398630999989,None,1,351.2068533999991,None,351.2068533999991,None,,,,,,,,,,,,,,,,,,,,,,,,,,,,,,,,,,,,,,,,,,,,,,,,,,,Pilot5,001,2019_Nov_19_1145,test_final,3.1.5,60.02627950524162,
,,,,,,,,,,,,,,,,,,,,4,0,4,0,1,0,1,0,,,,,,,,,,,,,,,,,,,,,,,,,,,,,,,,,,,,,,,,,,,,,,,,,,,,,,,,,,,,,,,,,,,,,,,,,,,,,,,,,,,,,,,,,,,352.53721360000054,None,,,,,,,,,,,,,,,,,,,,,,,,,,,,,,,,,,,,,,,,,,,,,,,,,Pilot5,001,2019_Nov_19_1145,test_final,3.1.5,60.02627950524162,
,,,,,,,,,,,,,,,,,,,,4,0,4,0,,,,,,,,,,,,,,,,,,,,,,,,,,,,,,,,,,,,,,,,,,,,,,,,,,,,,,,,,,,,,,,,,,,,,,,,,,,,,,,,,,,,,,,,,,,,,,,,,zs,"['z', 's']",0,"[0.818706199999724, 1.2476214000053005, 2.256290200006333]",353.8196439000021,None,353.8196439000021,None,353.8196439000021,None,1,356.63334459999896,None,,,,,,,,,,,,,,,,,,,,,,,,,,,,,,,,,,,,Pilot5,001,2019_Nov_19_1145,test_final,3.1.5,60.02627950524162,
Practice,15,(9/3) - 2,1,,,,,,,,,,,,,,,,,5,0,5,0,0,0,0,0,0,0,0,14,,,,,,,,,,,,,,,,,,,,,,,,,,,,,,,,,,,,,,2,,,,,,,,,,,,,,,,,,,,,,,,,,,,,,,,,358.16527000000497,None,['2'],0,[1.5014273999986472],358.16527000000497,None,358.16527000000497,None,358.16527000000497,None,0,359.7762187000044,None,359.7762187000044,None,,,,,,,,,,,,,,,,,,,,,,,,,,,,,,,,,,,,,,,,,,,,,,,,,,,Pilot5,001,2019_Nov_19_1145,test_final,3.1.5,60.02627950524162,
Practice,14,(6/3) + 4 ,6,,,,,,,,,,,,,,,,,5,0,5,0,0,0,0,0,0,1,1,13,,,,,,,,,,,,,,,,,,,,,,,,,,,,,,,,,,,,,,6,,,,,,,,,,,,,,,,,,,,,,,,,,,,,,,,,361.1118185000014,None,['6'],0,[2.4493599999987055],361.1118185000014,None,361.1118185000014,None,361.1118185000014,None,1,363.6206042999984,None,363.6206042999984,None,,,,,,,,,,,,,,,,,,,,,,,,,,,,,,,,,,,,,,,,,,,,,,,,,,,Pilot5,001,2019_Nov_19_1145,test_final,3.1.5,60.02627950524162,
,,,,,,,,,,,,,,,,,,,,5,0,5,0,0,0,0,0,,,,,,,,,,,,,,,,,,,,,,,,,,,,,,,,,,,,,,,,,,,,,,,,,,,,,,,,,,,,,,,,,,,,,,,,,,,,,,,,,,,,,,,,,,,364.94213120000495,None,,,,,,,,,,,,,,,,,,,,,,,,,,,,,,,,,,,,,,,,,,,,,,,,,Pilot5,001,2019_Nov_19_1145,test_final,3.1.5,60.02627950524162,
Practice,5,(3/3) + 2,3,,,,,,,,,,,,,,,,,5,0,5,0,1,0,1,0,0,0,0,4,,,,,,,,,,,,,,,,,,,,,,,,,,,,,,,,,,,,,,3,,,,,,,,,,,,,,,,,,,,,,,,,,,,,,,,,366.27350950000255,None,['3'],0,[1.924585400003707],366.27350950000255,None,366.27350950000255,None,366.27350950000255,None,1,368.2884631000052,None,368.2884631000052,None,,,,,,,,,,,,,,,,,,,,,,,,,,,,,,,,,,,,,,,,,,,,,,,,,,,Pilot5,001,2019_Nov_19_1145,test_final,3.1.5,60.02627950524162,
,,,,,,,,,,,,,,,,,,,,5,0,5,0,1,0,1,0,,,,,,,,,,,,,,,,,,,,,,,,,,,,,,,,,,,,,,,,,,,,,,,,,,,,,,,,,,,,,,,,,,,,,,,,,,,,,,,,,,,,,,,,,,,369.62004990000423,None,,,,,,,,,,,,,,,,,,,,,,,,,,,,,,,,,,,,,,,,,,,,,,,,,Pilot5,001,2019_Nov_19_1145,test_final,3.1.5,60.02627950524162,
,,,,,,,,,,,,,,,,,,,,5,0,5,0,,,,,,,,,,,,,,,,,,,,,,,,,,,,,,,,,,,,,,,,,,,,,,,,,,,,,,,,,,,,,,,,,,,,,,,,,,,,,,,,,,,,,,,,,,,,,,,,,rq,"['r', 'q']",0,"[0.7541378999958397, 1.4927266000013333, 2.81252669999958]",370.9033971000026,None,370.9033971000026,None,370.9033971000026,None,1,374.2666715000014,None,,,,,,,,,,,,,,,,,,,,,,,,,,,,,,,,,,,,Pilot5,001,2019_Nov_19_1145,test_final,3.1.5,60.02627950524162,
Practice,12,(8/2) + 4,8,,,,,,,,,,,,,,,,,6,0,6,0,0,0,0,0,0,0,0,11,,,,,,,,,,,,,,,,,,,,,,,,,,,,,,,,,,,,,,6,,,,,,,,,,,,,,,,,,,,,,,,,,,,,,,,,375.7978871000014,None,['6'],0,[1.8384318000025814],375.7978871000014,None,375.7978871000014,None,375.7978871000014,None,0,377.74009300000034,None,377.74009300000034,None,,,,,,,,,,,,,,,,,,,,,,,,,,,,,,,,,,,,,,,,,,,,,,,,,,,Pilot5,001,2019_Nov_19_1145,test_final,3.1.5,60.02627950524162,
Practice,10,(8/4) + 3,5,,,,,,,,,,,,,,,,,6,0,6,0,0,0,0,0,0,1,1,9,,,,,,,,,,,,,,,,,,,,,,,,,,,,,,,,,,,,,,5,,,,,,,,,,,,,,,,,,,,,,,,,,,,,,,,,379.0777645999988,None,['5'],0,[1.9110940000027767],379.0777645999988,None,379.0777645999988,None,379.0777645999988,None,1,381.04782200000045,None,381.04782200000045,None,,,,,,,,,,,,,,,,,,,,,,,,,,,,,,,,,,,,,,,,,,,,,,,,,,,Pilot5,001,2019_Nov_19_1145,test_final,3.1.5,60.02627950524162,
,,,,,,,,,,,,,,,,,,,,6,0,6,0,0,0,0,0,,,,,,,,,,,,,,,,,,,,,,,,,,,,,,,,,,,,,,,,,,,,,,,,,,,,,,,,,,,,,,,,,,,,,,,,,,,,,,,,,,,,,,,,,,,382.375068500005,None,,,,,,,,,,,,,,,,,,,,,,,,,,,,,,,,,,,,,,,,,,,,,,,,,Pilot5,001,2019_Nov_19_1145,test_final,3.1.5,60.02627950524162,
Practice,14,(6/3) + 4 ,6,,,,,,,,,,,,,,,,,6,0,6,0,1,0,1,0,0,0,0,13,,,,,,,,,,,,,,,,,,,,,,,,,,,,,,,,,,,,,,6,,,,,,,,,,,,,,,,,,,,,,,,,,,,,,,,,383.7067567999984,None,['6'],0,[2.4337569999988773],383.7067567999984,None,383.7067567999984,None,383.7067567999984,None,1,386.2423467000044,None,386.2423467000044,None,,,,,,,,,,,,,,,,,,,,,,,,,,,,,,,,,,,,,,,,,,,,,,,,,,,Pilot5,001,2019_Nov_19_1145,test_final,3.1.5,60.02627950524162,
,,,,,,,,,,,,,,,,,,,,6,0,6,0,1,0,1,0,,,,,,,,,,,,,,,,,,,,,,,,,,,,,,,,,,,,,,,,,,,,,,,,,,,,,,,,,,,,,,,,,,,,,,,,,,,,,,,,,,,,,,,,,,,387.56878690000303,None,,,,,,,,,,,,,,,,,,,,,,,,,,,,,,,,,,,,,,,,,,,,,,,,,Pilot5,001,2019_Nov_19_1145,test_final,3.1.5,60.02627950524162,
,,,,,,,,,,,,,,,,,,,,6,0,6,0,,,,,,,,,,,,,,,,,,,,,,,,,,,,,,,,,,,,,,,,,,,,,,,,,,,,,,,,,,,,,,,,,,,,,,,,,,,,,,,,,,,,,,,,,,,,,,,,,tn,"['t', 'n']",0,"[1.2313035000042873, 1.4962503999995533, 2.150736900002812]",388.8683175000042,None,388.8683175000042,None,388.8683175000042,None,1,391.581016600001,None,,,,,,,,,,,,,,,,,,,,,,,,,,,,,,,,,,,,Pilot5,001,2019_Nov_19_1145,test_final,3.1.5,60.02627950524162,
,,,,,,,,,,,,,,,,,,,,,,,,,,,,,,,,,,,,,,,,,,,,,,,,,,,,,,,,,,,,,,,,,,,,,,,,,,,,,,,,,,,,,,,,,,,,,,,,,,,,,,,,,,,,,,,,,,,,,,,,,,,,,,,,,,,,,393.09675280000374,None,space,8.265568199996778,393.09675280000374,None,,,,,,,,,,,,,,,,,,,,,,,,,,,,,,Pilot5,001,2019_Nov_19_1145,test_final,3.1.5,60.02627950524162,
Practice,3,(7x2) - 5,9,,,,,,,,,,,,,,,,,,,,,,,,,,,,,0,0,0,0,0,0,0,0,0,0,0,2,,,,,,,,,,,,,,,,,,,,,,,,,,9,,,,,,,,,,,,,,,,,,,,,,,,,,,,,,,,,,,,,,,,,,,,1,,,,,,,,,,,,,,,,,,,,,,,,,,401.9535881000047,None,['9'],0,[1.4408493999944767],401.9535881000047,None,401.9535881000047,None,401.9535881000047,None,403.493704600005,None,403.493704600005,None,,,,,,,,,,,,,,,Pilot5,001,2019_Nov_19_1145,test_final,3.1.5,60.02627950524162,
,,,,,,,,,,,,,,,,,,,,,,,,,,,,,,,,0,0,0,0,0,0,0,0,,,,,,,,,,,,,,,,,,,,,,,,,,,,,,,,,,,,,,,,,,,,,,,,,,,,,,,,,,,,,,,,,,,,,,,,,,,,,,,,,,,,,,,,,,,,,,,,,,,,,,,,,,,,,,,,,,,404.8359664000018,None,,,,,,,,,,,,,Pilot5,001,2019_Nov_19_1145,test_final,3.1.5,60.02627950524162,
Practice,7,(4x6) - 17,7,,,,,,,,,,,,,,,,,,,,,,,,,,,,,0,0,0,0,1,0,1,0,0,0,0,6,,,,,,,,,,,,,,,,,,,,,,,,,,8,,,,,,,,,,,,,,,,,,,,,,,,,,,,,,,,,,,,,,,,,,,,0,,,,,,,,,,,,,,,,,,,,,,,,,,406.15158540000266,None,['8'],0,[2.4700660000016796],406.15158540000266,None,406.15158540000266,None,406.15158540000266,None,408.7254518000045,None,408.7254518000045,None,,,,,,,,,,,,,,,Pilot5,001,2019_Nov_19_1145,test_final,3.1.5,60.02627950524162,
Practice,10,(8/4) + 3,5,,,,,,,,,,,,,,,,,,,,,,,,,,,,,0,0,0,0,1,0,1,0,0,1,1,9,,,,,,,,,,,,,,,,,,,,,,,,,,5,,,,,,,,,,,,,,,,,,,,,,,,,,,,,,,,,,,,,,,,,,,,1,,,,,,,,,,,,,,,,,,,,,,,,,,410.08095129999856,None,['5'],0,[1.7879762999946252],410.08095129999856,None,410.08095129999856,None,410.08095129999856,None,411.9431986000054,None,411.9431986000054,None,,,,,,,,,,,,,,,Pilot5,001,2019_Nov_19_1145,test_final,3.1.5,60.02627950524162,
,,,,,,,,,,,,,,,,,,,,,,,,,,,,,,,,0,0,0,0,1,0,1,0,,,,,,,,,,,,,,,,,,,,,,,,,,,,,,,,,,,,,,,,,,,,,,,,,,,,,,,,,,,,,,,,,,,,,,,,,,,,,,,,,,,,,,,,,,,,,,,,,,,,,,,,,,,,,,,,,,,413.2614332000012,None,,,,,,,,,,,,,Pilot5,001,2019_Nov_19_1145,test_final,3.1.5,60.02627950524162,
,,,,,,,,,,,,,,,,,,,,,,,,,,,,,,,,0,0,0,0,,,,,,,,,,,,,,,,,,,,,,,,,,,,,,,,,,,,,,,,,,,,,,,,,,,,,,,,,,,,,,,,,,,,,,,,,,,,,,,,,,,,,,,,,,,,,,,,,,,,,,,,,,,,,,,,,,,,,,,,,zx,"['z', 'x']",0,"[0.9805495000036899, 1.3901923000012175, 2.006667000001471]",414.55978640000103,None,414.55978640000103,None,1,ZX,414.55978640000103,None,Pilot5,001,2019_Nov_19_1145,test_final,3.1.5,60.02627950524162,
Practice,5,(3/3) + 2,3,,,,,,,,,,,,,,,,,,,,,,,,,,,,,1,0,1,0,0,0,0,0,0,0,0,4,,,,,,,,,,,,,,,,,,,,,,,,,,1,,,,,,,,,,,,,,,,,,,,,,,,,,,,,,,,,,,,,,,,,,,,0,,,,,,,,,,,,,,,,,,,,,,,,,,417.1404451999988,None,['1'],0,[2.092755500001658],417.1404451999988,None,417.1404451999988,None,417.1404451999988,None,419.3204842999985,None,419.3204842999985,None,,,,,,,,,,,,,,,Pilot5,001,2019_Nov_19_1145,test_final,3.1.5,60.02627950524162,
Practice,10,(8/4) + 3,5,,,,,,,,,,,,,,,,,,,,,,,,,,,,,1,0,1,0,0,0,0,0,0,1,1,9,,,,,,,,,,,,,,,,,,,,,,,,,,5,,,,,,,,,,,,,,,,,,,,,,,,,,,,,,,,,,,,,,,,,,,,1,,,,,,,,,,,,,,,,,,,,,,,,,,420.65427700000146,None,['5'],0,[1.5564003000035882],420.65427700000146,None,420.65427700000146,None,420.65427700000146,None,422.2816024999993,None,422.2816024999993,None,,,,,,,,,,,,,,,Pilot5,001,2019_Nov_19_1145,test_final,3.1.5,60.02627950524162,
,,,,,,,,,,,,,,,,,,,,,,,,,,,,,,,,1,0,1,0,0,0,0,0,,,,,,,,,,,,,,,,,,,,,,,,,,,,,,,,,,,,,,,,,,,,,,,,,,,,,,,,,,,,,,,,,,,,,,,,,,,,,,,,,,,,,,,,,,,,,,,,,,,,,,,,,,,,,,,,,,,423.60184210000443,None,,,,,,,,,,,,,Pilot5,001,2019_Nov_19_1145,test_final,3.1.5,60.02627950524162,
Practice,3,(7x2) - 5,9,,,,,,,,,,,,,,,,,,,,,,,,,,,,,1,0,1,0,1,0,1,0,0,0,0,2,,,,,,,,,,,,,,,,,,,,,,,,,,9,,,,,,,,,,,,,,,,,,,,,,,,,,,,,,,,,,,,,,,,,,,,1,,,,,,,,,,,,,,,,,,,,,,,,,,424.9164130999998,None,['9'],0,[1.5315859999973327],424.9164130999998,None,424.9164130999998,None,424.9164130999998,None,426.55667679999897,None,426.55667679999897,None,,,,,,,,,,,,,,,Pilot5,001,2019_Nov_19_1145,test_final,3.1.5,60.02627950524162,
,,,,,,,,,,,,,,,,,,,,,,,,,,,,,,,,1,0,1,0,1,0,1,0,,,,,,,,,,,,,,,,,,,,,,,,,,,,,,,,,,,,,,,,,,,,,,,,,,,,,,,,,,,,,,,,,,,,,,,,,,,,,,,,,,,,,,,,,,,,,,,,,,,,,,,,,,,,,,,,,,,427.87993310000456,None,,,,,,,,,,,,,Pilot5,001,2019_Nov_19_1145,test_final,3.1.5,60.02627950524162,
Practice,14,(6/3) + 4 ,6,,,,,,,,,,,,,,,,,,,,,,,,,,,,,1,0,1,0,2,0,2,0,0,0,0,13,,,,,,,,,,,,,,,,,,,,,,,,,,6,,,,,,,,,,,,,,,,,,,,,,,,,,,,,,,,,,,,,,,,,,,,1,,,,,,,,,,,,,,,,,,,,,,,,,,429.21103890000086,None,['6'],0,[1.7413768999977037],429.21103890000086,None,429.21103890000086,None,429.21103890000086,None,431.0494741000002,None,431.0494741000002,None,,,,,,,,,,,,,,,Pilot5,001,2019_Nov_19_1145,test_final,3.1.5,60.02627950524162,
,,,,,,,,,,,,,,,,,,,,,,,,,,,,,,,,1,0,1,0,2,0,2,0,,,,,,,,,,,,,,,,,,,,,,,,,,,,,,,,,,,,,,,,,,,,,,,,,,,,,,,,,,,,,,,,,,,,,,,,,,,,,,,,,,,,,,,,,,,,,,,,,,,,,,,,,,,,,,,,,,,432.3931340000054,None,,,,,,,,,,,,,Pilot5,001,2019_Nov_19_1145,test_final,3.1.5,60.02627950524162,
,,,,,,,,,,,,,,,,,,,,,,,,,,,,,,,,1,0,1,0,,,,,,,,,,,,,,,,,,,,,,,,,,,,,,,,,,,,,,,,,,,,,,,,,,,,,,,,,,,,,,,,,,,,,,,,,,,,,,,,,,,,,,,,,,,,,,,,,,,,,,,,,,,,,,,,,,,,,,,,,khq,"['k', 'h', 'q']",0,"[0.5197180999966804, 1.018354799998633, 1.378315299996757, 2.1329430999976466]",433.67477489999874,None,433.67477489999874,None,1,KHQ,433.67477489999874,None,Pilot5,001,2019_Nov_19_1145,test_final,3.1.5,60.02627950524162,
Practice,7,(4x6) - 17,7,,,,,,,,,,,,,,,,,,,,,,,,,,,,,2,0,2,0,0,0,0,0,0,0,0,6,,,,,,,,,,,,,,,,,,,,,,,,,,7,,,,,,,,,,,,,,,,,,,,,,,,,,,,,,,,,,,,,,,,,,,,1,,,,,,,,,,,,,,,,,,,,,,,,,,436.4049980999989,None,['7'],0,[2.2708419999980833],436.4049980999989,None,436.4049980999989,None,436.4049980999989,None,438.77843080000457,None,438.77843080000457,None,,,,,,,,,,,,,,,Pilot5,001,2019_Nov_19_1145,test_final,3.1.5,60.02627950524162,
,,,,,,,,,,,,,,,,,,,,,,,,,,,,,,,,2,0,2,0,0,0,0,0,,,,,,,,,,,,,,,,,,,,,,,,,,,,,,,,,,,,,,,,,,,,,,,,,,,,,,,,,,,,,,,,,,,,,,,,,,,,,,,,,,,,,,,,,,,,,,,,,,,,,,,,,,,,,,,,,,,440.1189855000048,None,,,,,,,,,,,,,Pilot5,001,2019_Nov_19_1145,test_final,3.1.5,60.02627950524162,
Practice,6,(2x6) - 8,4,,,,,,,,,,,,,,,,,,,,,,,,,,,,,2,0,2,0,1,0,1,0,0,0,0,5,,,,,,,,,,,,,,,,,,,,,,,,,,4,,,,,,,,,,,,,,,,,,,,,,,,,,,,,,,,,,,,,,,,,,,,1,,,,,,,,,,,,,,,,,,,,,,,,,,441.4335024000029,None,['4'],0,[1.6433987999989768],441.4335024000029,None,441.4335024000029,None,441.4335024000029,None,443.17838050000137,None,443.17838050000137,None,,,,,,,,,,,,,,,Pilot5,001,2019_Nov_19_1145,test_final,3.1.5,60.02627950524162,
,,,,,,,,,,,,,,,,,,,,,,,,,,,,,,,,2,0,2,0,1,0,1,0,,,,,,,,,,,,,,,,,,,,,,,,,,,,,,,,,,,,,,,,,,,,,,,,,,,,,,,,,,,,,,,,,,,,,,,,,,,,,,,,,,,,,,,,,,,,,,,,,,,,,,,,,,,,,,,,,,,444.49746170000435,None,,,,,,,,,,,,,Pilot5,001,2019_Nov_19_1145,test_final,3.1.5,60.02627950524162,
Practice,3,(7x2) - 5,9,,,,,,,,,,,,,,,,,,,,,,,,,,,,,2,0,2,0,2,0,2,0,0,0,0,2,,,,,,,,,,,,,,,,,,,,,,,,,,9,,,,,,,,,,,,,,,,,,,,,,,,,,,,,,,,,,,,,,,,,,,,1,,,,,,,,,,,,,,,,,,,,,,,,,,445.82932650000294,None,['9'],0,[1.548376400001871],445.82932650000294,None,445.82932650000294,None,445.82932650000294,None,447.46732350000093,None,447.46732350000093,None,,,,,,,,,,,,,,,Pilot5,001,2019_Nov_19_1145,test_final,3.1.5,60.02627950524162,
,,,,,,,,,,,,,,,,,,,,,,,,,,,,,,,,2,0,2,0,2,0,2,0,,,,,,,,,,,,,,,,,,,,,,,,,,,,,,,,,,,,,,,,,,,,,,,,,,,,,,,,,,,,,,,,,,,,,,,,,,,,,,,,,,,,,,,,,,,,,,,,,,,,,,,,,,,,,,,,,,,448.80957910000143,None,,,,,,,,,,,,,Pilot5,001,2019_Nov_19_1145,test_final,3.1.5,60.02627950524162,
Practice,12,(8/2) + 4,8,,,,,,,,,,,,,,,,,,,,,,,,,,,,,2,0,2,0,3,0,3,0,0,0,0,11,,,,,,,,,,,,,,,,,,,,,,,,,,8,,,,,,,,,,,,,,,,,,,,,,,,,,,,,,,,,,,,,,,,,,,,1,,,,,,,,,,,,,,,,,,,,,,,,,,450.12485110000125,None,['8'],0,[1.4303436000045622],450.12485110000125,None,450.12485110000125,None,450.12485110000125,None,451.6442649000019,None,451.6442649000019,None,,,,,,,,,,,,,,,Pilot5,001,2019_Nov_19_1145,test_final,3.1.5,60.02627950524162,
,,,,,,,,,,,,,,,,,,,,,,,,,,,,,,,,2,0,2,0,3,0,3,0,,,,,,,,,,,,,,,,,,,,,,,,,,,,,,,,,,,,,,,,,,,,,,,,,,,,,,,,,,,,,,,,,,,,,,,,,,,,,,,,,,,,,,,,,,,,,,,,,,,,,,,,,,,,,,,,,,,452.98920490000455,None,,,,,,,,,,,,,Pilot5,001,2019_Nov_19_1145,test_final,3.1.5,60.02627950524162,
,,,,,,,,,,,,,,,,,,,,,,,,,,,,,,,,2,0,2,0,,,,,,,,,,,,,,,,,,,,,,,,,,,,,,,,,,,,,,,,,,,,,,,,,,,,,,,,,,,,,,,,,,,,,,,,,,,,,,,,,,,,,,,,,,,,,,,,,,,,,,,,,,,,,,,,,,,,,,,,,zqk,"['z', 'q', 'k']",0,"[0.7558360000039102, 1.291969900004915, 1.6308055000044988, 2.1806788000030792]",454.2708713000029,None,454.2708713000029,None,0,HZQK,454.2708713000029,None,Pilot5,001,2019_Nov_19_1145,test_final,3.1.5,60.02627950524162,
Practice,6,(2x6) - 8,4,,,,,,,,,,,,,,,,,,,,,,,,,,,,,3,0,3,0,0,0,0,0,0,0,0,5,,,,,,,,,,,,,,,,,,,,,,,,,,4,,,,,,,,,,,,,,,,,,,,,,,,,,,,,,,,,,,,,,,,,,,,1,,,,,,,,,,,,,,,,,,,,,,,,,,457.0183477000028,None,['4'],0,[1.474910999997519],457.0183477000028,None,457.0183477000028,None,457.0183477000028,None,458.59356169999955,None,458.59356169999955,None,,,,,,,,,,,,,,,Pilot5,001,2019_Nov_19_1145,test_final,3.1.5,60.02627950524162,
,,,,,,,,,,,,,,,,,,,,,,,,,,,,,,,,3,0,3,0,0,0,0,0,,,,,,,,,,,,,,,,,,,,,,,,,,,,,,,,,,,,,,,,,,,,,,,,,,,,,,,,,,,,,,,,,,,,,,,,,,,,,,,,,,,,,,,,,,,,,,,,,,,,,,,,,,,,,,,,,,,459.93123560000095,None,,,,,,,,,,,,,Pilot5,001,2019_Nov_19_1145,test_final,3.1.5,60.02627950524162,
Practice,15,(9/3) - 2,1,,,,,,,,,,,,,,,,,,,,,,,,,,,,,3,0,3,0,1,0,1,0,0,0,0,14,,,,,,,,,,,,,,,,,,,,,,,,,,5,,,,,,,,,,,,,,,,,,,,,,,,,,,,,,,,,,,,,,,,,,,,0,,,,,,,,,,,,,,,,,,,,,,,,,,461.24738870000147,None,['5'],0,[2.131931700001587],461.24738870000147,None,461.24738870000147,None,461.24738870000147,None,463.46384730000136,None,463.46384730000136,None,,,,,,,,,,,,,,,Pilot5,001,2019_Nov_19_1145,test_final,3.1.5,60.02627950524162,
Practice,4,(4x4) - 14,2,,,,,,,,,,,,,,,,,,,,,,,,,,,,,3,0,3,0,1,0,1,0,0,1,1,3,,,,,,,,,,,,,,,,,,,,,,,,,,2,,,,,,,,,,,,,,,,,,,,,,,,,,,,,,,,,,,,,,,,,,,,1,,,,,,,,,,,,,,,,,,,,,,,,,,464.79371700000047,None,['2'],0,[1.727985899997293],464.79371700000047,None,464.79371700000047,None,464.79371700000047,None,466.5899811000054,None,466.5899811000054,None,,,,,,,,,,,,,,,Pilot5,001,2019_Nov_19_1145,test_final,3.1.5,60.02627950524162,
,,,,,,,,,,,,,,,,,,,,,,,,,,,,,,,,3,0,3,0,1,0,1,0,,,,,,,,,,,,,,,,,,,,,,,,,,,,,,,,,,,,,,,,,,,,,,,,,,,,,,,,,,,,,,,,,,,,,,,,,,,,,,,,,,,,,,,,,,,,,,,,,,,,,,,,,,,,,,,,,,,467.9085221999994,None,,,,,,,,,,,,,Pilot5,001,2019_Nov_19_1145,test_final,3.1.5,60.02627950524162,
Practice,3,(7x2) - 5,9,,,,,,,,,,,,,,,,,,,,,,,,,,,,,3,0,3,0,2,0,2,0,0,0,0,2,,,,,,,,,,,,,,,,,,,,,,,,,,9,,,,,,,,,,,,,,,,,,,,,,,,,,,,,,,,,,,,,,,,,,,,1,,,,,,,,,,,,,,,,,,,,,,,,,,469.2396472000037,None,['9'],0,[1.5739959999991697],469.2396472000037,None,469.2396472000037,None,469.2396472000037,None,470.90623929999856,None,470.90623929999856,None,,,,,,,,,,,,,,,Pilot5,001,2019_Nov_19_1145,test_final,3.1.5,60.02627950524162,
,,,,,,,,,,,,,,,,,,,,,,,,,,,,,,,,3,0,3,0,2,0,2,0,,,,,,,,,,,,,,,,,,,,,,,,,,,,,,,,,,,,,,,,,,,,,,,,,,,,,,,,,,,,,,,,,,,,,,,,,,,,,,,,,,,,,,,,,,,,,,,,,,,,,,,,,,,,,,,,,,,472.23704179999913,None,,,,,,,,,,,,,Pilot5,001,2019_Nov_19_1145,test_final,3.1.5,60.02627950524162,
Practice,9,(4/2) + 5,7,,,,,,,,,,,,,,,,,,,,,,,,,,,,,3,0,3,0,3,0,3,0,0,0,0,8,,,,,,,,,,,,,,,,,,,,,,,,,,7,,,,,,,,,,,,,,,,,,,,,,,,,,,,,,,,,,,,,,,,,,,,1,,,,,,,,,,,,,,,,,,,,,,,,,,473.568878099999,None,['7'],0,[2.5858192999949097],473.568878099999,None,473.568878099999,None,473.568878099999,None,476.2563836000045,None,476.2563836000045,None,,,,,,,,,,,,,,,Pilot5,001,2019_Nov_19_1145,test_final,3.1.5,60.02627950524162,
,,,,,,,,,,,,,,,,,,,,,,,,,,,,,,,,3,0,3,0,3,0,3,0,,,,,,,,,,,,,,,,,,,,,,,,,,,,,,,,,,,,,,,,,,,,,,,,,,,,,,,,,,,,,,,,,,,,,,,,,,,,,,,,,,,,,,,,,,,,,,,,,,,,,,,,,,,,,,,,,,,477.59883690000424,None,,,,,,,,,,,,,Pilot5,001,2019_Nov_19_1145,test_final,3.1.5,60.02627950524162,
,,,,,,,,,,,,,,,,,,,,,,,,,,,,,,,,3,0,3,0,,,,,,,,,,,,,,,,,,,,,,,,,,,,,,,,,,,,,,,,,,,,,,,,,,,,,,,,,,,,,,,,,,,,,,,,,,,,,,,,,,,,,,,,,,,,,,,,,,,,,,,,,,,,,,,,,,,,,,,,,kqv,"['k', 'q', 'v']",0,"[0.8811499000003096, 1.2123356000010972, 1.6312237000020104, 2.2314489999989746]",478.8805532000042,None,478.8805532000042,None,0,KJTV,478.8805532000042,None,Pilot5,001,2019_Nov_19_1145,test_final,3.1.5,60.02627950524162,
