Task,Trial,Problem,Operation_answer,next_level.thisRepN,next_level.thisTrialN,next_level.thisN,next_level.thisIndex,next_letter.thisRepN,next_letter.thisTrialN,next_letter.thisN,next_letter.thisIndex,repeat_practice.thisRepN,repeat_practice.thisTrialN,repeat_practice.thisN,repeat_practice.thisIndex,trials.thisRepN,trials.thisTrialN,trials.thisN,trials.thisIndex,span_recall_prac.thisRepN,span_recall_prac.thisTrialN,span_recall_prac.thisN,span_recall_prac.thisIndex,span_size_prac.thisRepN,span_size_prac.thisTrialN,span_size_prac.thisN,span_size_prac.thisIndex,repeat_if_wrong_prac.thisRepN,repeat_if_wrong_prac.thisTrialN,repeat_if_wrong_prac.thisN,repeat_if_wrong_prac.thisIndex,span_recall.thisRepN,span_recall.thisTrialN,span_recall.thisN,span_recall.thisIndex,span_size.thisRepN,span_size.thisTrialN,span_size.thisN,span_size.thisIndex,repeat_if_wrong.thisRepN,repeat_if_wrong.thisTrialN,repeat_if_wrong.thisN,repeat_if_wrong.thisIndex,instructions_2.started,instructions_2.stopped,key_resp_4.keys,key_resp_4.rt,key_resp_4.started,key_resp_4.stopped,text_2.started,text_2.stopped,simple_recall,key_resp_5.keys,key_resp_5.rt,key_resp_5.started,key_resp_5.stopped,text_feedback.started,text_feedback.stopped,simple_recall_corr,simple_recall_corrkeys,instructions_3.started,instructions_3.stopped,instructions.started,instructions.stopped,key_resp_2.keys,key_resp_2.rt,key_resp_2.started,key_resp_2.stopped,digit_answer,operation.started,operation.stopped,key_resp.keys,key_resp.corr,key_resp.rt,key_resp.started,key_resp.stopped,operation_feedback.started,operation_feedback.stopped,RT_list,instructions_8.started,instructions_8.stopped,feedback_msg.started,feedback_msg.stopped,processing_score,sumRT,meanRT,sumdiff,sd,RT,feedback_msg_2.started,feedback_msg_2.stopped,key_resp_3.keys,key_resp_3.rt,key_resp_3.started,key_resp_3.stopped,instructions_4.started,instructions_4.stopped,key_resp_6.keys,key_resp_6.rt,key_resp_6.started,key_resp_6.stopped,operation_3.started,operation_3.stopped,key_resp_11.keys,key_resp_11.corr,key_resp_11.rt,key_resp_11.started,key_resp_11.stopped,operation_feedback_2.started,operation_feedback_2.stopped,instructions_9.started,instructions_9.stopped,operation_correct,feedback_msg_4.started,feedback_msg_4.stopped,operation_4.started,operation_4.stopped,text_3.started,text_3.stopped,complex_recall_prac,key_resp_9.keys,key_resp_9.corr,key_resp_9.rt,key_resp_9.started,key_resp_9.stopped,text_feedback_3.started,text_feedback_3.stopped,instructions_6.started,instructions_6.stopped,complex_prac_corr,feedback_msg_3.started,feedback_msg_3.stopped,instructions_7.started,instructions_7.stopped,key_resp_10.keys,key_resp_10.rt,key_resp_10.started,key_resp_10.stopped,operation_2.started,operation_2.stopped,key_resp_7.keys,key_resp_7.corr,key_resp_7.rt,key_resp_7.started,key_resp_7.stopped,operation_feedback_3.started,operation_feedback_3.stopped,instructions_10.started,instructions_10.stopped,feedback_msg_5.started,feedback_msg_5.stopped,operation_5.started,operation_5.stopped,text.started,text.stopped,complex_recall,key_resp_8.keys,key_resp_8.corr,key_resp_8.rt,key_resp_8.started,key_resp_8.stopped,text_feedback_2.started,text_feedback_2.stopped,complex_recall_corr,complex_recall_corrkeys,instructions_5.started,instructions_5.stopped,participant,session,date,expName,psychopyVersion,frameRate,
,,,,,,,,,,,,,,,,,,,,,,,,,,,,,,,,,,,,,,,,,,,,19.752032200005488,None,space,26.972325199996703,19.752032200005488,None,,,,,,,,,,,,,,,,,,,,,,,,,,,,,,,,,,,,,,,,,,,,,,,,,,,,,,,,,,,,,,,,,,,,,,,,,,,,,,,,,,,,,,,,,,,,,,,,,,,,,,,,,,,,,,,,,,,,,,,Pilot3,001,2019_Nov_19_1106,test_final,3.1.5,60.18860701693385,
,,,,0,0,0,0,0,0,0,0,,,,,,,,,,,,,,,,,,,,,,,,,,,,,,,,,,,,,,,47.29165210000065,None,,,,,,,,,,,,,,,,,,,,,,,,,,,,,,,,,,,,,,,,,,,,,,,,,,,,,,,,,,,,,,,,,,,,,,,,,,,,,,,,,,,,,,,,,,,,,,,,,,,,,,,,,,,,,,,,,,,,,Pilot3,001,2019_Nov_19_1106,test_final,3.1.5,60.18860701693385,
,,,,0,0,0,0,1,0,1,0,,,,,,,,,,,,,,,,,,,,,,,,,,,,,,,,,,,,,,,48.57374300000083,None,,,,,,,,,,,,,,,,,,,,,,,,,,,,,,,,,,,,,,,,,,,,,,,,,,,,,,,,,,,,,,,,,,,,,,,,,,,,,,,,,,,,,,,,,,,,,,,,,,,,,,,,,,,,,,,,,,,,,Pilot3,001,2019_Nov_19_1106,test_final,3.1.5,60.18860701693385,
,,,,1,0,1,0,0,0,0,0,,,,,,,,,,,,,,,,,,,,,,,,,,,,,,,,,,,,,,,54.41822950000642,None,nj,"['n', 'j']","[2.4866369999945164, 2.9335504000046058, 3.981538799998816]",49.87267670000438,None,49.87267670000438,None,1,NJ,49.87267670000438,None,,,,,,,,,,,,,,,,,,,,,,,,,,,,,,,,,,,,,,,,,,,,,,,,,,,,,,,,,,,,,,,,,,,,,,,,,,,,,,,,,,,,,,,,,,,,,,,,,,,,,,,,,,Pilot3,001,2019_Nov_19_1106,test_final,3.1.5,60.18860701693385,
,,,,1,0,1,0,1,0,1,0,,,,,,,,,,,,,,,,,,,,,,,,,,,,,,,,,,,,,,,55.73354270000709,None,,,,,,,,,,,,,,,,,,,,,,,,,,,,,,,,,,,,,,,,,,,,,,,,,,,,,,,,,,,,,,,,,,,,,,,,,,,,,,,,,,,,,,,,,,,,,,,,,,,,,,,,,,,,,,,,,,,,,Pilot3,001,2019_Nov_19_1106,test_final,3.1.5,60.18860701693385,
,,,,2,0,2,0,0,0,0,0,,,,,,,,,,,,,,,,,,,,,,,,,,,,,,,,,,,,,,,58.98045170000114,None,qx,"['q', 'x']","[0.7885690999974031, 1.1148137999989558, 1.385610800003633]",57.03244059999997,None,57.03244059999997,None,1,QX,57.03244059999997,None,,,,,,,,,,,,,,,,,,,,,,,,,,,,,,,,,,,,,,,,,,,,,,,,,,,,,,,,,,,,,,,,,,,,,,,,,,,,,,,,,,,,,,,,,,,,,,,,,,,,,,,,,,Pilot3,001,2019_Nov_19_1106,test_final,3.1.5,60.18860701693385,
,,,,2,0,2,0,1,0,1,0,,,,,,,,,,,,,,,,,,,,,,,,,,,,,,,,,,,,,,,60.295770900003845,None,,,,,,,,,,,,,,,,,,,,,,,,,,,,,,,,,,,,,,,,,,,,,,,,,,,,,,,,,,,,,,,,,,,,,,,,,,,,,,,,,,,,,,,,,,,,,,,,,,,,,,,,,,,,,,,,,,,,,Pilot3,001,2019_Nov_19_1106,test_final,3.1.5,60.18860701693385,
,,,,2,0,2,0,2,0,2,0,,,,,,,,,,,,,,,,,,,,,,,,,,,,,,,,,,,,,,,61.59440490000998,None,,,,,,,,,,,,,,,,,,,,,,,,,,,,,,,,,,,,,,,,,,,,,,,,,,,,,,,,,,,,,,,,,,,,,,,,,,,,,,,,,,,,,,,,,,,,,,,,,,,,,,,,,,,,,,,,,,,,,Pilot3,001,2019_Nov_19_1106,test_final,3.1.5,60.18860701693385,
,,,,3,0,3,0,0,0,0,0,,,,,,,,,,,,,,,,,,,,,,,,,,,,,,,,,,,,,,,64.90789610000502,None,zqt,"['z', 'q', 't']","[0.595904600006179, 0.8776168000040343, 1.1858216999971773, 1.458196699997643]",62.89328580000438,None,62.89328580000438,None,1,ZQT,62.89328580000438,None,,,,,,,,,,,,,,,,,,,,,,,,,,,,,,,,,,,,,,,,,,,,,,,,,,,,,,,,,,,,,,,,,,,,,,,,,,,,,,,,,,,,,,,,,,,,,,,,,,,,,,,,,,Pilot3,001,2019_Nov_19_1106,test_final,3.1.5,60.18860701693385,
,,,,3,0,3,0,1,0,1,0,,,,,,,,,,,,,,,,,,,,,,,,,,,,,,,,,,,,,,,66.20654530001048,65.69971909999731,,,,,,,,,,,,,,,,,,,,,,,,,,,,,,,,,,,,,,,,,,,,,,,,,,,,,,,,,,,,,,,,,,,,,,,,,,,,,,,,,,,,,,,,,,,,,,,,,,,,,,,,,,,,,,,,,,,,,Pilot3,001,2019_Nov_19_1106,test_final,3.1.5,60.18860701693385,
,,,,3,0,3,0,2,0,2,0,,,,,,,,,,,,,,,,,,,,,,,,,,,,,,,,,,,,,,,67.5050101000088,66.99319350000587,,,,,,,,,,,,,,,,,,,,,,,,,,,,,,,,,,,,,,,,,,,,,,,,,,,,,,,,,,,,,,,,,,,,,,,,,,,,,,,,,,,,,,,,,,,,,,,,,,,,,,,,,,,,,,,,,,,,,Pilot3,001,2019_Nov_19_1106,test_final,3.1.5,60.18860701693385,
,,,,4,0,4,0,0,0,0,0,,,,,,,,,,,,,,,,,,,,,,,,,,,,,,,,,,,,,,,71.13519060000544,None,xvj,"['x', 'v', 'j']","[0.7229335000010906, 1.0512413999967976, 1.561897499996121, 1.775627600000007]",68.80425460000697,None,68.80425460000697,None,1,XVJ,68.80425460000697,None,,,,,,,,,,,,,,,,,,,,,,,,,,,,,,,,,,,,,,,,,,,,,,,,,,,,,,,,,,,,,,,,,,,,,,,,,,,,,,,,,,,,,,,,,,,,,,,,,,,,,,,,,,Pilot3,001,2019_Nov_19_1106,test_final,3.1.5,60.18860701693385,
,,,,4,0,4,0,1,0,1,0,,,,,,,,,,,,,,,,,,,,,,,,,,,,,,,,,,,,,,,72.4506693000003,None,,,,,,,,,,,,,,,,,,,,,,,,,,,,,,,,,,,,,,,,,,,,,,,,,,,,,,,,,,,,,,,,,,,,,,,,,,,,,,,,,,,,,,,,,,,,,,,,,,,,,,,,,,,,,,,,,,,,,Pilot3,001,2019_Nov_19_1106,test_final,3.1.5,60.18860701693385,
,,,,4,0,4,0,2,0,2,0,,,,,,,,,,,,,,,,,,,,,,,,,,,,,,,,,,,,,,,73.74914890000946,None,,,,,,,,,,,,,,,,,,,,,,,,,,,,,,,,,,,,,,,,,,,,,,,,,,,,,,,,,,,,,,,,,,,,,,,,,,,,,,,,,,,,,,,,,,,,,,,,,,,,,,,,,,,,,,,,,,,,,Pilot3,001,2019_Nov_19_1106,test_final,3.1.5,60.18860701693385,
,,,,4,0,4,0,3,0,3,0,,,,,,,,,,,,,,,,,,,,,,,,,,,,,,,,,,,,,,,75.04801549999684,None,,,,,,,,,,,,,,,,,,,,,,,,,,,,,,,,,,,,,,,,,,,,,,,,,,,,,,,,,,,,,,,,,,,,,,,,,,,,,,,,,,,,,,,,,,,,,,,,,,,,,,,,,,,,,,,,,,,,,Pilot3,001,2019_Nov_19_1106,test_final,3.1.5,60.18860701693385,
,,,,5,0,5,0,0,0,0,0,,,,,,,,,,,,,,,,,,,,,,,,,,,,,,,,,,,,,,,79.44379990000743,None,ntxq,"['n', 't', 'x', 'q']","[0.8251233000046341, 1.1495759000099497, 1.7004178000061074, 1.9898138999997173, 2.536143000004813]",76.34673170000315,None,76.34673170000315,None,1,NTXQ,76.34673170000315,None,,,,,,,,,,,,,,,,,,,,,,,,,,,,,,,,,,,,,,,,,,,,,,,,,,,,,,,,,,,,,,,,,,,,,,,,,,,,,,,,,,,,,,,,,,,,,,,,,,,,,,,,,,Pilot3,001,2019_Nov_19_1106,test_final,3.1.5,60.18860701693385,
,,,,5,0,5,0,1,0,1,0,,,,,,,,,,,,,,,,,,,,,,,,,,,,,,,,,,,,,,,80.75899620000564,None,,,,,,,,,,,,,,,,,,,,,,,,,,,,,,,,,,,,,,,,,,,,,,,,,,,,,,,,,,,,,,,,,,,,,,,,,,,,,,,,,,,,,,,,,,,,,,,,,,,,,,,,,,,,,,,,,,,,,Pilot3,001,2019_Nov_19_1106,test_final,3.1.5,60.18860701693385,
,,,,5,0,5,0,2,0,2,0,,,,,,,,,,,,,,,,,,,,,,,,,,,,,,,,,,,,,,,82.05781389999902,None,,,,,,,,,,,,,,,,,,,,,,,,,,,,,,,,,,,,,,,,,,,,,,,,,,,,,,,,,,,,,,,,,,,,,,,,,,,,,,,,,,,,,,,,,,,,,,,,,,,,,,,,,,,,,,,,,,,,,Pilot3,001,2019_Nov_19_1106,test_final,3.1.5,60.18860701693385,
,,,,5,0,5,0,3,0,3,0,,,,,,,,,,,,,,,,,,,,,,,,,,,,,,,,,,,,,,,83.35670200000459,None,,,,,,,,,,,,,,,,,,,,,,,,,,,,,,,,,,,,,,,,,,,,,,,,,,,,,,,,,,,,,,,,,,,,,,,,,,,,,,,,,,,,,,,,,,,,,,,,,,,,,,,,,,,,,,,,,,,,,Pilot3,001,2019_Nov_19_1106,test_final,3.1.5,60.18860701693385,
,,,,6,0,6,0,0,0,0,0,,,,,,,,,,,,,,,,,,,,,,,,,,,,,,,,,,,,,,,87.8688511000073,None,rqsv,"['r', 'q', 's', 'v']","[1.3859391000005417, 1.7982967999996617, 2.072971100002178, 2.462863099994138, 2.6609129999997094]",84.65531210000336,None,84.65531210000336,None,1,RQSV,84.65531210000336,None,,,,,,,,,,,,,,,,,,,,,,,,,,,,,,,,,,,,,,,,,,,,,,,,,,,,,,,,,,,,,,,,,,,,,,,,,,,,,,,,,,,,,,,,,,,,,,,,,,,,,,,,,,Pilot3,001,2019_Nov_19_1106,test_final,3.1.5,60.18860701693385,
,,,,6,0,6,0,1,0,1,0,,,,,,,,,,,,,,,,,,,,,,,,,,,,,,,,,,,,,,,89.18431930000952,None,,,,,,,,,,,,,,,,,,,,,,,,,,,,,,,,,,,,,,,,,,,,,,,,,,,,,,,,,,,,,,,,,,,,,,,,,,,,,,,,,,,,,,,,,,,,,,,,,,,,,,,,,,,,,,,,,,,,,Pilot3,001,2019_Nov_19_1106,test_final,3.1.5,60.18860701693385,
,,,,6,0,6,0,2,0,2,0,,,,,,,,,,,,,,,,,,,,,,,,,,,,,,,,,,,,,,,90.48290290001023,None,,,,,,,,,,,,,,,,,,,,,,,,,,,,,,,,,,,,,,,,,,,,,,,,,,,,,,,,,,,,,,,,,,,,,,,,,,,,,,,,,,,,,,,,,,,,,,,,,,,,,,,,,,,,,,,,,,,,,Pilot3,001,2019_Nov_19_1106,test_final,3.1.5,60.18860701693385,
,,,,6,0,6,0,3,0,3,0,,,,,,,,,,,,,,,,,,,,,,,,,,,,,,,,,,,,,,,91.78182380000362,None,,,,,,,,,,,,,,,,,,,,,,,,,,,,,,,,,,,,,,,,,,,,,,,,,,,,,,,,,,,,,,,,,,,,,,,,,,,,,,,,,,,,,,,,,,,,,,,,,,,,,,,,,,,,,,,,,,,,,Pilot3,001,2019_Nov_19_1106,test_final,3.1.5,60.18860701693385,
,,,,6,0,6,0,4,0,4,0,,,,,,,,,,,,,,,,,,,,,,,,,,,,,,,,,,,,,,,93.08054710000579,None,,,,,,,,,,,,,,,,,,,,,,,,,,,,,,,,,,,,,,,,,,,,,,,,,,,,,,,,,,,,,,,,,,,,,,,,,,,,,,,,,,,,,,,,,,,,,,,,,,,,,,,,,,,,,,,,,,,,,Pilot3,001,2019_Nov_19_1106,test_final,3.1.5,60.18860701693385,
,,,,7,0,7,0,0,0,0,0,,,,,,,,,,,,,,,,,,,,,,,,,,,,,,,,,,,,,,,97.70930529999896,None,ltvzj,"['l', 't', 'v', 'z', 'j']","[1.0106551999924704, 1.5163899999897694, 1.8173498999967705, 2.1786511999962386, 2.6030350999935763, 2.7795784999907482]",94.3791179000109,None,94.3791179000109,None,1,LTVZJ,94.3791179000109,None,,,,,,,,,,,,,,,,,,,,,,,,,,,,,,,,,,,,,,,,,,,,,,,,,,,,,,,,,,,,,,,,,,,,,,,,,,,,,,,,,,,,,,,,,,,,,,,,,,,,,,,,,,Pilot3,001,2019_Nov_19_1106,test_final,3.1.5,60.18860701693385,
,,,,7,0,7,0,1,0,1,0,,,,,,,,,,,,,,,,,,,,,,,,,,,,,,,,,,,,,,,99.00768700000481,98.4928929000016,,,,,,,,,,,,,,,,,,,,,,,,,,,,,,,,,,,,,,,,,,,,,,,,,,,,,,,,,,,,,,,,,,,,,,,,,,,,,,,,,,,,,,,,,,,,,,,,,,,,,,,,,,,,,,,,,,,,,Pilot3,001,2019_Nov_19_1106,test_final,3.1.5,60.18860701693385,
,,,,7,0,7,0,2,0,2,0,,,,,,,,,,,,,,,,,,,,,,,,,,,,,,,,,,,,,,,100.30650980000792,99.79782600000908,,,,,,,,,,,,,,,,,,,,,,,,,,,,,,,,,,,,,,,,,,,,,,,,,,,,,,,,,,,,,,,,,,,,,,,,,,,,,,,,,,,,,,,,,,,,,,,,,,,,,,,,,,,,,,,,,,,,,Pilot3,001,2019_Nov_19_1106,test_final,3.1.5,60.18860701693385,
,,,,7,0,7,0,3,0,3,0,,,,,,,,,,,,,,,,,,,,,,,,,,,,,,,,,,,,,,,101.60544710000977,101.09039480000501,,,,,,,,,,,,,,,,,,,,,,,,,,,,,,,,,,,,,,,,,,,,,,,,,,,,,,,,,,,,,,,,,,,,,,,,,,,,,,,,,,,,,,,,,,,,,,,,,,,,,,,,,,,,,,,,,,,,,Pilot3,001,2019_Nov_19_1106,test_final,3.1.5,60.18860701693385,
,,,,7,0,7,0,4,0,4,0,,,,,,,,,,,,,,,,,,,,,,,,,,,,,,,,,,,,,,,102.90401440000278,102.38875860000553,,,,,,,,,,,,,,,,,,,,,,,,,,,,,,,,,,,,,,,,,,,,,,,,,,,,,,,,,,,,,,,,,,,,,,,,,,,,,,,,,,,,,,,,,,,,,,,,,,,,,,,,,,,,,,,,,,,,,Pilot3,001,2019_Nov_19_1106,test_final,3.1.5,60.18860701693385,
,,,,8,0,8,0,0,0,0,0,,,,,,,,,,,,,,,,,,,,,,,,,,,,,,,,,,,,,,,108.99798790000204,None,qlhsn,"['q', 'l', 'h', 's', 'n']","[1.3981960999954026, 2.6497285999939777, 3.1584669000003487, 3.647588399995584, 4.0159733000036795, 4.242990099999588]",104.2027880000096,None,104.2027880000096,None,1,QLHSN,104.2027880000096,None,,,,,,,,,,,,,,,,,,,,,,,,,,,,,,,,,,,,,,,,,,,,,,,,,,,,,,,,,,,,,,,,,,,,,,,,,,,,,,,,,,,,,,,,,,,,,,,,,,,,,,,,,,Pilot3,001,2019_Nov_19_1106,test_final,3.1.5,60.18860701693385,
,,,,8,0,8,0,1,0,1,0,,,,,,,,,,,,,,,,,,,,,,,,,,,,,,,,,,,,,,,110.31310790000134,None,,,,,,,,,,,,,,,,,,,,,,,,,,,,,,,,,,,,,,,,,,,,,,,,,,,,,,,,,,,,,,,,,,,,,,,,,,,,,,,,,,,,,,,,,,,,,,,,,,,,,,,,,,,,,,,,,,,,,Pilot3,001,2019_Nov_19_1106,test_final,3.1.5,60.18860701693385,
,,,,8,0,8,0,2,0,2,0,,,,,,,,,,,,,,,,,,,,,,,,,,,,,,,,,,,,,,,111.61218910000753,None,,,,,,,,,,,,,,,,,,,,,,,,,,,,,,,,,,,,,,,,,,,,,,,,,,,,,,,,,,,,,,,,,,,,,,,,,,,,,,,,,,,,,,,,,,,,,,,,,,,,,,,,,,,,,,,,,,,,,Pilot3,001,2019_Nov_19_1106,test_final,3.1.5,60.18860701693385,
,,,,8,0,8,0,3,0,3,0,,,,,,,,,,,,,,,,,,,,,,,,,,,,,,,,,,,,,,,112.91113180000684,None,,,,,,,,,,,,,,,,,,,,,,,,,,,,,,,,,,,,,,,,,,,,,,,,,,,,,,,,,,,,,,,,,,,,,,,,,,,,,,,,,,,,,,,,,,,,,,,,,,,,,,,,,,,,,,,,,,,,,Pilot3,001,2019_Nov_19_1106,test_final,3.1.5,60.18860701693385,
,,,,8,0,8,0,4,0,4,0,,,,,,,,,,,,,,,,,,,,,,,,,,,,,,,,,,,,,,,114.20968569999968,None,,,,,,,,,,,,,,,,,,,,,,,,,,,,,,,,,,,,,,,,,,,,,,,,,,,,,,,,,,,,,,,,,,,,,,,,,,,,,,,,,,,,,,,,,,,,,,,,,,,,,,,,,,,,,,,,,,,,,Pilot3,001,2019_Nov_19_1106,test_final,3.1.5,60.18860701693385,
,,,,8,0,8,0,5,0,5,0,,,,,,,,,,,,,,,,,,,,,,,,,,,,,,,,,,,,,,,115.50768809999863,None,,,,,,,,,,,,,,,,,,,,,,,,,,,,,,,,,,,,,,,,,,,,,,,,,,,,,,,,,,,,,,,,,,,,,,,,,,,,,,,,,,,,,,,,,,,,,,,,,,,,,,,,,,,,,,,,,,,,,Pilot3,001,2019_Nov_19_1106,test_final,3.1.5,60.18860701693385,
,,,,9,0,9,0,0,0,0,0,,,,,,,,,,,,,,,,,,,,,,,,,,,,,,,,,,,,,,,129.0450972000108,None,sjqxth,"['s', 'j', 'q', 'x', 't', 'h']","[1.8183222000079695, 2.677004900004249, 3.9439322000107495, 5.352589700007229, 5.762130700008129, 5.947187300000223, 6.499666600007913, 6.825012200002675, 7.935509800008731, 8.094783300010022, 8.242960400006268, 8.546916699997382, 9.010139500009245, 9.231936199998017, 10.24319110000215, 10.804103200003738, 11.37019240000518, 11.67485989999841]",116.80727089999709,None,116.80727089999709,None,1,SJQXTH,116.80727089999709,None,,,,,,,,,,,,,,,,,,,,,,,,,,,,,,,,,,,,,,,,,,,,,,,,,,,,,,,,,,,,,,,,,,,,,,,,,,,,,,,,,,,,,,,,,,,,,,,,,,,,,,,,,,Pilot3,001,2019_Nov_19_1106,test_final,3.1.5,60.18860701693385,
,,,,9,0,9,0,1,0,1,0,,,,,,,,,,,,,,,,,,,,,,,,,,,,,,,,,,,,,,,130.3439769000106,129.82750179999857,,,,,,,,,,,,,,,,,,,,,,,,,,,,,,,,,,,,,,,,,,,,,,,,,,,,,,,,,,,,,,,,,,,,,,,,,,,,,,,,,,,,,,,,,,,,,,,,,,,,,,,,,,,,,,,,,,,,,Pilot3,001,2019_Nov_19_1106,test_final,3.1.5,60.18860701693385,
,,,,9,0,9,0,2,0,2,0,,,,,,,,,,,,,,,,,,,,,,,,,,,,,,,,,,,,,,,131.64216410000517,131.12622220000776,,,,,,,,,,,,,,,,,,,,,,,,,,,,,,,,,,,,,,,,,,,,,,,,,,,,,,,,,,,,,,,,,,,,,,,,,,,,,,,,,,,,,,,,,,,,,,,,,,,,,,,,,,,,,,,,,,,,,Pilot3,001,2019_Nov_19_1106,test_final,3.1.5,60.18860701693385,
,,,,9,0,9,0,3,0,3,0,,,,,,,,,,,,,,,,,,,,,,,,,,,,,,,,,,,,,,,132.941278600003,132.4257179999986,,,,,,,,,,,,,,,,,,,,,,,,,,,,,,,,,,,,,,,,,,,,,,,,,,,,,,,,,,,,,,,,,,,,,,,,,,,,,,,,,,,,,,,,,,,,,,,,,,,,,,,,,,,,,,,,,,,,,Pilot3,001,2019_Nov_19_1106,test_final,3.1.5,60.18860701693385,
,,,,9,0,9,0,4,0,4,0,,,,,,,,,,,,,,,,,,,,,,,,,,,,,,,,,,,,,,,134.24014629999874,133.723504900001,,,,,,,,,,,,,,,,,,,,,,,,,,,,,,,,,,,,,,,,,,,,,,,,,,,,,,,,,,,,,,,,,,,,,,,,,,,,,,,,,,,,,,,,,,,,,,,,,,,,,,,,,,,,,,,,,,,,,Pilot3,001,2019_Nov_19_1106,test_final,3.1.5,60.18860701693385,
,,,,9,0,9,0,5,0,5,0,,,,,,,,,,,,,,,,,,,,,,,,,,,,,,,,,,,,,,,135.53897049999796,135.02240640000673,,,,,,,,,,,,,,,,,,,,,,,,,,,,,,,,,,,,,,,,,,,,,,,,,,,,,,,,,,,,,,,,,,,,,,,,,,,,,,,,,,,,,,,,,,,,,,,,,,,,,,,,,,,,,,,,,,,,,Pilot3,001,2019_Nov_19_1106,test_final,3.1.5,60.18860701693385,
,,,,10,0,10,0,0,0,0,0,,,,,,,,,,,,,,,,,,,,,,,,,,,,,,,,,,,,,,,141.98240220001026,None,vskstz,"['v', 's', 'k', 's', 't', 'z']","[1.1042802999872947, 1.7307001999870408, 2.3573767999914708, 3.1172256999998353, 3.7068776999949478, 4.176849299998139, 4.585047299988219]",136.83785080000234,None,136.83785080000234,None,0,VSJHQZ,136.83785080000234,None,,,,,,,,,,,,,,,,,,,,,,,,,,,,,,,,,,,,,,,,,,,,,,,,,,,,,,,,,,,,,,,,,,,,,,,,,,,,,,,,,,,,,,,,,,,,,,,,,,,,,,,,,,Pilot3,001,2019_Nov_19_1106,test_final,3.1.5,60.18860701693385,
,,,,10,0,10,0,1,0,1,0,,,,,,,,,,,,,,,,,,,,,,,,,,,,,,,,,,,,,,,143.29799370000546,None,,,,,,,,,,,,,,,,,,,,,,,,,,,,,,,,,,,,,,,,,,,,,,,,,,,,,,,,,,,,,,,,,,,,,,,,,,,,,,,,,,,,,,,,,,,,,,,,,,,,,,,,,,,,,,,,,,,,,Pilot3,001,2019_Nov_19_1106,test_final,3.1.5,60.18860701693385,
,,,,10,0,10,0,2,0,2,0,,,,,,,,,,,,,,,,,,,,,,,,,,,,,,,,,,,,,,,144.59654350001074,None,,,,,,,,,,,,,,,,,,,,,,,,,,,,,,,,,,,,,,,,,,,,,,,,,,,,,,,,,,,,,,,,,,,,,,,,,,,,,,,,,,,,,,,,,,,,,,,,,,,,,,,,,,,,,,,,,,,,,Pilot3,001,2019_Nov_19_1106,test_final,3.1.5,60.18860701693385,
,,,,10,0,10,0,3,0,3,0,,,,,,,,,,,,,,,,,,,,,,,,,,,,,,,,,,,,,,,145.89552079999703,None,,,,,,,,,,,,,,,,,,,,,,,,,,,,,,,,,,,,,,,,,,,,,,,,,,,,,,,,,,,,,,,,,,,,,,,,,,,,,,,,,,,,,,,,,,,,,,,,,,,,,,,,,,,,,,,,,,,,,Pilot3,001,2019_Nov_19_1106,test_final,3.1.5,60.18860701693385,
,,,,10,0,10,0,4,0,4,0,,,,,,,,,,,,,,,,,,,,,,,,,,,,,,,,,,,,,,,147.19421970000258,None,,,,,,,,,,,,,,,,,,,,,,,,,,,,,,,,,,,,,,,,,,,,,,,,,,,,,,,,,,,,,,,,,,,,,,,,,,,,,,,,,,,,,,,,,,,,,,,,,,,,,,,,,,,,,,,,,,,,,Pilot3,001,2019_Nov_19_1106,test_final,3.1.5,60.18860701693385,
,,,,10,0,10,0,5,0,5,0,,,,,,,,,,,,,,,,,,,,,,,,,,,,,,,,,,,,,,,148.49282530001074,None,,,,,,,,,,,,,,,,,,,,,,,,,,,,,,,,,,,,,,,,,,,,,,,,,,,,,,,,,,,,,,,,,,,,,,,,,,,,,,,,,,,,,,,,,,,,,,,,,,,,,,,,,,,,,,,,,,,,,Pilot3,001,2019_Nov_19_1106,test_final,3.1.5,60.18860701693385,
,,,,11,0,11,0,0,0,0,0,,,,,,,,,,,,,,,,,,,,,,,,,,,,,,,,,,,,,,,156.46824349999952,None,rghvsk,"['r', 'g', 'h', 'v', 's', 'k']","[2.965626000004704, 4.352868200003286, 4.650610700002289, 5.302845900005195, 5.552479100006167, 5.906099800005904, 6.127290900010848]",149.79159470000013,None,149.79159470000013,None,0,RJHVSK,149.79159470000013,None,,,,,,,,,,,,,,,,,,,,,,,,,,,,,,,,,,,,,,,,,,,,,,,,,,,,,,,,,,,,,,,,,,,,,,,,,,,,,,,,,,,,,,,,,,,,,,,,,,,,,,,,,,Pilot3,001,2019_Nov_19_1106,test_final,3.1.5,60.18860701693385,
,,,,11,0,11,0,1,0,1,0,,,,,,,,,,,,,,,,,,,,,,,,,,,,,,,,,,,,,,,157.78384770000412,None,,,,,,,,,,,,,,,,,,,,,,,,,,,,,,,,,,,,,,,,,,,,,,,,,,,,,,,,,,,,,,,,,,,,,,,,,,,,,,,,,,,,,,,,,,,,,,,,,,,,,,,,,,,,,,,,,,,,,Pilot3,001,2019_Nov_19_1106,test_final,3.1.5,60.18860701693385,
,,,,11,0,11,0,2,0,2,0,,,,,,,,,,,,,,,,,,,,,,,,,,,,,,,,,,,,,,,159.08248480000475,None,,,,,,,,,,,,,,,,,,,,,,,,,,,,,,,,,,,,,,,,,,,,,,,,,,,,,,,,,,,,,,,,,,,,,,,,,,,,,,,,,,,,,,,,,,,,,,,,,,,,,,,,,,,,,,,,,,,,,Pilot3,001,2019_Nov_19_1106,test_final,3.1.5,60.18860701693385,
,,,,11,0,11,0,3,0,3,0,,,,,,,,,,,,,,,,,,,,,,,,,,,,,,,,,,,,,,,160.3812070999993,None,,,,,,,,,,,,,,,,,,,,,,,,,,,,,,,,,,,,,,,,,,,,,,,,,,,,,,,,,,,,,,,,,,,,,,,,,,,,,,,,,,,,,,,,,,,,,,,,,,,,,,,,,,,,,,,,,,,,,Pilot3,001,2019_Nov_19_1106,test_final,3.1.5,60.18860701693385,
,,,,11,0,11,0,4,0,4,0,,,,,,,,,,,,,,,,,,,,,,,,,,,,,,,,,,,,,,,161.6798729000002,None,,,,,,,,,,,,,,,,,,,,,,,,,,,,,,,,,,,,,,,,,,,,,,,,,,,,,,,,,,,,,,,,,,,,,,,,,,,,,,,,,,,,,,,,,,,,,,,,,,,,,,,,,,,,,,,,,,,,,Pilot3,001,2019_Nov_19_1106,test_final,3.1.5,60.18860701693385,
,,,,11,0,11,0,5,0,5,0,,,,,,,,,,,,,,,,,,,,,,,,,,,,,,,,,,,,,,,162.97865309999906,None,,,,,,,,,,,,,,,,,,,,,,,,,,,,,,,,,,,,,,,,,,,,,,,,,,,,,,,,,,,,,,,,,,,,,,,,,,,,,,,,,,,,,,,,,,,,,,,,,,,,,,,,,,,,,,,,,,,,,Pilot3,001,2019_Nov_19_1106,test_final,3.1.5,60.18860701693385,
,,,,12,0,12,0,0,0,0,0,,,,,,,,,,,,,,,,,,,,,,,,,,,,,,,,,,,,,,,167.57405340000696,None,znrqsl,"['z', 'n', 'r', 'q', 's', 'l']","[0.5267309999908321, 0.9481782999937423, 1.3818140999937896, 1.7508456999930786, 2.0433764999907, 2.435743399997591, 2.7335275999939768]",164.27761869999813,None,164.27761869999813,None,1,ZNRQSL,164.27761869999813,None,,,,,,,,,,,,,,,,,,,,,,,,,,,,,,,,,,,,,,,,,,,,,,,,,,,,,,,,,,,,,,,,,,,,,,,,,,,,,,,,,,,,,,,,,,,,,,,,,,,,,,,,,,Pilot3,001,2019_Nov_19_1106,test_final,3.1.5,60.18860701693385,
,,,,12,0,12,0,1,0,1,0,,,,,,,,,,,,,,,,,,,,,,,,,,,,,,,,,,,,,,,168.88939019999816,None,,,,,,,,,,,,,,,,,,,,,,,,,,,,,,,,,,,,,,,,,,,,,,,,,,,,,,,,,,,,,,,,,,,,,,,,,,,,,,,,,,,,,,,,,,,,,,,,,,,,,,,,,,,,,,,,,,,,,Pilot3,001,2019_Nov_19_1106,test_final,3.1.5,60.18860701693385,
,,,,12,0,12,0,2,0,2,0,,,,,,,,,,,,,,,,,,,,,,,,,,,,,,,,,,,,,,,170.18837080000958,None,,,,,,,,,,,,,,,,,,,,,,,,,,,,,,,,,,,,,,,,,,,,,,,,,,,,,,,,,,,,,,,,,,,,,,,,,,,,,,,,,,,,,,,,,,,,,,,,,,,,,,,,,,,,,,,,,,,,,Pilot3,001,2019_Nov_19_1106,test_final,3.1.5,60.18860701693385,
,,,,12,0,12,0,3,0,3,0,,,,,,,,,,,,,,,,,,,,,,,,,,,,,,,,,,,,,,,171.48695320000115,None,,,,,,,,,,,,,,,,,,,,,,,,,,,,,,,,,,,,,,,,,,,,,,,,,,,,,,,,,,,,,,,,,,,,,,,,,,,,,,,,,,,,,,,,,,,,,,,,,,,,,,,,,,,,,,,,,,,,,Pilot3,001,2019_Nov_19_1106,test_final,3.1.5,60.18860701693385,
,,,,12,0,12,0,4,0,4,0,,,,,,,,,,,,,,,,,,,,,,,,,,,,,,,,,,,,,,,172.78579609999724,None,,,,,,,,,,,,,,,,,,,,,,,,,,,,,,,,,,,,,,,,,,,,,,,,,,,,,,,,,,,,,,,,,,,,,,,,,,,,,,,,,,,,,,,,,,,,,,,,,,,,,,,,,,,,,,,,,,,,,Pilot3,001,2019_Nov_19_1106,test_final,3.1.5,60.18860701693385,
,,,,12,0,12,0,5,0,5,0,,,,,,,,,,,,,,,,,,,,,,,,,,,,,,,,,,,,,,,174.0846051999979,None,,,,,,,,,,,,,,,,,,,,,,,,,,,,,,,,,,,,,,,,,,,,,,,,,,,,,,,,,,,,,,,,,,,,,,,,,,,,,,,,,,,,,,,,,,,,,,,,,,,,,,,,,,,,,,,,,,,,,Pilot3,001,2019_Nov_19_1106,test_final,3.1.5,60.18860701693385,
,,,,12,0,12,0,6,0,6,0,,,,,,,,,,,,,,,,,,,,,,,,,,,,,,,,,,,,,,,175.38312140000926,174.86815840000054,,,,,,,,,,,,,,,,,,,,,,,,,,,,,,,,,,,,,,,,,,,,,,,,,,,,,,,,,,,,,,,,,,,,,,,,,,,,,,,,,,,,,,,,,,,,,,,,,,,,,,,,,,,,,,,,,,,,,Pilot3,001,2019_Nov_19_1106,test_final,3.1.5,60.18860701693385,
,,,,13,0,13,0,0,0,0,0,,,,,,,,,,,,,,,,,,,,,,,,,,,,,,,,,,,,,,,182.40941160000511,None,xjhntrs,"['x', 'j', 'h', 'n', 't', 'r', 's']","[1.6090037999965716, 2.293170699995244, 2.704240799997933, 3.801843299996108, 4.218137199990451, 4.503893200002494, 4.8247817999945255, 5.165484800003469]",176.6820399999997,None,176.6820399999997,None,0,XJHNTZS,176.6820399999997,None,,,,,,,,,,,,,,,,,,,,,,,,,,,,,,,,,,,,,,,,,,,,,,,,,,,,,,,,,,,,,,,,,,,,,,,,,,,,,,,,,,,,,,,,,,,,,,,,,,,,,,,,,,Pilot3,001,2019_Nov_19_1106,test_final,3.1.5,60.18860701693385,
,,,,13,0,13,0,1,0,1,0,,,,,,,,,,,,,,,,,,,,,,,,,,,,,,,,,,,,,,,183.72473990000435,None,,,,,,,,,,,,,,,,,,,,,,,,,,,,,,,,,,,,,,,,,,,,,,,,,,,,,,,,,,,,,,,,,,,,,,,,,,,,,,,,,,,,,,,,,,,,,,,,,,,,,,,,,,,,,,,,,,,,,Pilot3,001,2019_Nov_19_1106,test_final,3.1.5,60.18860701693385,
,,,,13,0,13,0,2,0,2,0,,,,,,,,,,,,,,,,,,,,,,,,,,,,,,,,,,,,,,,185.02365660000942,None,,,,,,,,,,,,,,,,,,,,,,,,,,,,,,,,,,,,,,,,,,,,,,,,,,,,,,,,,,,,,,,,,,,,,,,,,,,,,,,,,,,,,,,,,,,,,,,,,,,,,,,,,,,,,,,,,,,,,Pilot3,001,2019_Nov_19_1106,test_final,3.1.5,60.18860701693385,
,,,,13,0,13,0,3,0,3,0,,,,,,,,,,,,,,,,,,,,,,,,,,,,,,,,,,,,,,,186.32258930000535,None,,,,,,,,,,,,,,,,,,,,,,,,,,,,,,,,,,,,,,,,,,,,,,,,,,,,,,,,,,,,,,,,,,,,,,,,,,,,,,,,,,,,,,,,,,,,,,,,,,,,,,,,,,,,,,,,,,,,,Pilot3,001,2019_Nov_19_1106,test_final,3.1.5,60.18860701693385,
,,,,13,0,13,0,4,0,4,0,,,,,,,,,,,,,,,,,,,,,,,,,,,,,,,,,,,,,,,187.62118190000183,None,,,,,,,,,,,,,,,,,,,,,,,,,,,,,,,,,,,,,,,,,,,,,,,,,,,,,,,,,,,,,,,,,,,,,,,,,,,,,,,,,,,,,,,,,,,,,,,,,,,,,,,,,,,,,,,,,,,,,Pilot3,001,2019_Nov_19_1106,test_final,3.1.5,60.18860701693385,
,,,,13,0,13,0,5,0,5,0,,,,,,,,,,,,,,,,,,,,,,,,,,,,,,,,,,,,,,,188.9198749000061,188.403364400001,,,,,,,,,,,,,,,,,,,,,,,,,,,,,,,,,,,,,,,,,,,,,,,,,,,,,,,,,,,,,,,,,,,,,,,,,,,,,,,,,,,,,,,,,,,,,,,,,,,,,,,,,,,,,,,,,,,,,Pilot3,001,2019_Nov_19_1106,test_final,3.1.5,60.18860701693385,
,,,,13,0,13,0,6,0,6,0,,,,,,,,,,,,,,,,,,,,,,,,,,,,,,,,,,,,,,,190.21866210000007,189.7032207000011,,,,,,,,,,,,,,,,,,,,,,,,,,,,,,,,,,,,,,,,,,,,,,,,,,,,,,,,,,,,,,,,,,,,,,,,,,,,,,,,,,,,,,,,,,,,,,,,,,,,,,,,,,,,,,,,,,,,,Pilot3,001,2019_Nov_19_1106,test_final,3.1.5,60.18860701693385,
,,,,14,0,14,0,0,0,0,0,,,,,,,,,,,,,,,,,,,,,,,,,,,,,,,,,,,,,,,198.71005170000717,None,sghnxrj,"['s', 'g', 'h', 'n', 'x', 'r', 'j']","[1.744760400004452, 4.0599041000095895, 4.393461400002707, 4.893432600001688, 5.383906700008083, 6.100372200002312, 6.406681000007666, 6.636738100001821]",191.5173596000095,None,191.5173596000095,None,0,KVHNSZT,191.5173596000095,None,,,,,,,,,,,,,,,,,,,,,,,,,,,,,,,,,,,,,,,,,,,,,,,,,,,,,,,,,,,,,,,,,,,,,,,,,,,,,,,,,,,,,,,,,,,,,,,,,,,,,,,,,,Pilot3,001,2019_Nov_19_1106,test_final,3.1.5,60.18860701693385,
,,,,14,0,14,0,1,0,1,0,,,,,,,,,,,,,,,,,,,,,,,,,,,,,,,,,,,,,,,200.02560580000863,None,,,,,,,,,,,,,,,,,,,,,,,,,,,,,,,,,,,,,,,,,,,,,,,,,,,,,,,,,,,,,,,,,,,,,,,,,,,,,,,,,,,,,,,,,,,,,,,,,,,,,,,,,,,,,,,,,,,,,Pilot3,001,2019_Nov_19_1106,test_final,3.1.5,60.18860701693385,
,,,,14,0,14,0,2,0,2,0,,,,,,,,,,,,,,,,,,,,,,,,,,,,,,,,,,,,,,,201.32444310000574,None,,,,,,,,,,,,,,,,,,,,,,,,,,,,,,,,,,,,,,,,,,,,,,,,,,,,,,,,,,,,,,,,,,,,,,,,,,,,,,,,,,,,,,,,,,,,,,,,,,,,,,,,,,,,,,,,,,,,,Pilot3,001,2019_Nov_19_1106,test_final,3.1.5,60.18860701693385,
,,,,14,0,14,0,3,0,3,0,,,,,,,,,,,,,,,,,,,,,,,,,,,,,,,,,,,,,,,202.62317960000655,None,,,,,,,,,,,,,,,,,,,,,,,,,,,,,,,,,,,,,,,,,,,,,,,,,,,,,,,,,,,,,,,,,,,,,,,,,,,,,,,,,,,,,,,,,,,,,,,,,,,,,,,,,,,,,,,,,,,,,Pilot3,001,2019_Nov_19_1106,test_final,3.1.5,60.18860701693385,
,,,,14,0,14,0,4,0,4,0,,,,,,,,,,,,,,,,,,,,,,,,,,,,,,,,,,,,,,,203.9218630000105,None,,,,,,,,,,,,,,,,,,,,,,,,,,,,,,,,,,,,,,,,,,,,,,,,,,,,,,,,,,,,,,,,,,,,,,,,,,,,,,,,,,,,,,,,,,,,,,,,,,,,,,,,,,,,,,,,,,,,,Pilot3,001,2019_Nov_19_1106,test_final,3.1.5,60.18860701693385,
,,,,14,0,14,0,5,0,5,0,,,,,,,,,,,,,,,,,,,,,,,,,,,,,,,,,,,,,,,205.2207436000026,None,,,,,,,,,,,,,,,,,,,,,,,,,,,,,,,,,,,,,,,,,,,,,,,,,,,,,,,,,,,,,,,,,,,,,,,,,,,,,,,,,,,,,,,,,,,,,,,,,,,,,,,,,,,,,,,,,,,,,Pilot3,001,2019_Nov_19_1106,test_final,3.1.5,60.18860701693385,
,,,,14,0,14,0,6,0,6,0,,,,,,,,,,,,,,,,,,,,,,,,,,,,,,,,,,,,,,,206.5193711000029,206.00547960000404,,,,,,,,,,,,,,,,,,,,,,,,,,,,,,,,,,,,,,,,,,,,,,,,,,,,,,,,,,,,,,,,,,,,,,,,,,,,,,,,,,,,,,,,,,,,,,,,,,,,,,,,,,,,,,,,,,,,,Pilot3,001,2019_Nov_19_1106,test_final,3.1.5,60.18860701693385,
,,,,,,,,,,,,,,,,,,,,,,,,,,,,,,,,,,,,,,,,,,,,,,,,,,,,lqxsnth,"['l', 'q', 'x', 's', 'n', 't', 'h']","[1.6373631000024034, 1.9169192999979714, 2.4366689000016777, 3.8034256999962963, 4.1940417000005255, 4.520399400003953, 4.755717399995774, 5.010479000004125]",207.81824400000914,None,207.81824400000914,None,0,LQXSNTK,207.81824400000914,None,213.37929730000906,None,space,4.718929299997399,213.37929730000906,None,,,,,,,,,,,,,,,,,,,,,,,,,,,,,,,,,,,,,,,,,,,,,,,,,,,,,,,,,,,,,,,,,,,,,,,,,,,,,,,,,,,,,,,,,,,,,,,,,,,,Pilot3,001,2019_Nov_19_1106,test_final,3.1.5,60.18860701693385,
Practice,10,(8/4) + 3,5,,,,,,,,,0,0,0,0,0,0,0,9,,,,,,,,,,,,,,,,,,,,,,,,,,,,,,,,,,,,,,,,,,,,,,,,,,5,218.7068653000024,None,['5'],0,[3.349159300007159],218.7068653000024,None,218.7068653000024,None,[3.349159300007159],218.7068653000024,None,222.5871432999993,None,,,,,,,,,,,,,,,,,,,,,,,,,,,,,,,,,,,,,,,,,,,,,,,,,,,,,,,,,,,,,,,,,,,,,,,,,,,,,,,,,,,,,Pilot3,001,2019_Nov_19_1106,test_final,3.1.5,60.18860701693385,
Practice,7,(4x6) - 17,7,,,,,,,,,0,0,0,0,0,1,1,6,,,,,,,,,,,,,,,,,,,,,,,,,,,,,,,,,,,,,,,,,,,,,,,,,,7,224.1024475000013,None,['7'],0,[5.099490699998569],224.1024475000013,None,224.1024475000013,None,"[3.349159300007159, 5.099490699998569]",224.1024475000013,None,229.74659249999968,None,,,,,,,,,,,,,,,,,,,,,,,,,,,,,,,,,,,,,,,,,,,,,,,,,,,,,,,,,,,,,,,,,,,,,,,,,,,,,,,,,,,,,Pilot3,001,2019_Nov_19_1106,test_final,3.1.5,60.18860701693385,
Practice,15,(9/3) - 2,1,,,,,,,,,0,0,0,0,0,2,2,14,,,,,,,,,,,,,,,,,,,,,,,,,,,,,,,,,,,,,,,,,,,,,,,,,,1,231.24472970000352,None,['1'],0,[1.8796319999964908],231.24472970000352,None,231.24472970000352,None,"[3.349159300007159, 5.099490699998569, 1.8796319999964908]",231.24472970000352,None,233.65937160000612,None,,,,,,,,,,,,,,,,,,,,,,,,,,,,,,,,,,,,,,,,,,,,,,,,,,,,,,,,,,,,,,,,,,,,,,,,,,,,,,,,,,,,,Pilot3,001,2019_Nov_19_1106,test_final,3.1.5,60.18860701693385,
Practice,4,(4x4) - 14,2,,,,,,,,,0,0,0,0,0,3,3,3,,,,,,,,,,,,,,,,,,,,,,,,,,,,,,,,,,,,,,,,,,,,,,,,,,2,235.15813840000192,None,['2'],0,[1.383560000002035],235.15813840000192,None,235.15813840000192,None,"[3.349159300007159, 5.099490699998569, 1.8796319999964908, 1.383560000002035]",235.15813840000192,None,237.08950709999772,None,,,,,,,,,,,,,,,,,,,,,,,,,,,,,,,,,,,,,,,,,,,,,,,,,,,,,,,,,,,,,,,,,,,,,,,,,,,,,,,,,,,,,Pilot3,001,2019_Nov_19_1106,test_final,3.1.5,60.18860701693385,
Practice,12,(8/2) + 4,8,,,,,,,,,0,0,0,0,0,4,4,11,,,,,,,,,,,,,,,,,,,,,,,,,,,,,,,,,,,,,,,,,,,,,,,,,,8,238.5880984999967,None,['8'],0,[1.81985590000113],238.5880984999967,None,238.5880984999967,None,"[3.349159300007159, 5.099490699998569, 1.8796319999964908, 1.383560000002035, 1.81985590000113]",238.5880984999967,None,240.95263970000087,None,,,,,,,,,,,,,,,,,,,,,,,,,,,,,,,,,,,,,,,,,,,,,,,,,,,,,,,,,,,,,,,,,,,,,,,,,,,,,,,,,,,,,Pilot3,001,2019_Nov_19_1106,test_final,3.1.5,60.18860701693385,
Practice,13,(3x8) - 19 ,5,,,,,,,,,0,0,0,0,0,5,5,12,,,,,,,,,,,,,,,,,,,,,,,,,,,,,,,,,,,,,,,,,,,,,,,,,,5,242.45062750000216,None,['5'],0,[2.913106499996502],242.45062750000216,None,242.45062750000216,None,"[3.349159300007159, 5.099490699998569, 1.8796319999964908, 1.383560000002035, 1.81985590000113, 2.913106499996502]",242.45062750000216,None,245.89757180000015,None,,,,,,,,,,,,,,,,,,,,,,,,,,,,,,,,,,,,,,,,,,,,,,,,,,,,,,,,,,,,,,,,,,,,,,,,,,,,,,,,,,,,,Pilot3,001,2019_Nov_19_1106,test_final,3.1.5,60.18860701693385,
Practice,11,(5x3) - 7,8,,,,,,,,,0,0,0,0,0,6,6,10,,,,,,,,,,,,,,,,,,,,,,,,,,,,,,,,,,,,,,,,,,,,,,,,,,8,247.39579710000544,None,['8'],0,[1.910633899999084],247.39579710000544,None,247.39579710000544,None,"[3.349159300007159, 5.099490699998569, 1.8796319999964908, 1.383560000002035, 1.81985590000113, 2.913106499996502, 1.910633899999084]",247.39579710000544,None,249.84365940000862,None,,,,,,,,,,,,,,,,,,,,,,,,,,,,,,,,,,,,,,,,,,,,,,,,,,,,,,,,,,,,,,,,,,,,,,,,,,,,,,,,,,,,,Pilot3,001,2019_Nov_19_1106,test_final,3.1.5,60.18860701693385,
Practice,3,(7x2) - 5,9,,,,,,,,,0,0,0,0,0,7,7,2,,,,,,,,,,,,,,,,,,,,,,,,,,,,,,,,,,,,,,,,,,,,,,,,,,9,251.3421212000103,None,['9'],0,[2.526488200004678],251.3421212000103,None,251.3421212000103,None,"[3.349159300007159, 5.099490699998569, 1.8796319999964908, 1.383560000002035, 1.81985590000113, 2.913106499996502, 1.910633899999084, 2.526488200004678]",251.3421212000103,None,254.4058337000024,None,,,,,,,,,,,,,,,,,,,,,,,,,,,,,,,,,,,,,,,,,,,,,,,,,,,,,,,,,,,,,,,,,,,,,,,,,,,,,,,,,,,,,Pilot3,001,2019_Nov_19_1106,test_final,3.1.5,60.18860701693385,
Practice,6,(2x6) - 8,4,,,,,,,,,0,0,0,0,0,8,8,5,,,,,,,,,,,,,,,,,,,,,,,,,,,,,,,,,,,,,,,,,,,,,,,,,,4,255.9043665000063,None,['4'],0,[1.6239104999986012],255.9043665000063,None,255.9043665000063,None,"[3.349159300007159, 5.099490699998569, 1.8796319999964908, 1.383560000002035, 1.81985590000113, 2.913106499996502, 1.910633899999084, 2.526488200004678, 1.6239104999986012]",255.9043665000063,None,258.0686793000059,None,,,,,,,,,,,,,,,,,,,,,,,,,,,,,,,,,,,,,,,,,,,,,,,,,,,,,,,,,,,,,,,,,,,,,,,,,,,,,,,,,,,,,Pilot3,001,2019_Nov_19_1106,test_final,3.1.5,60.18860701693385,
Practice,5,(3/3) + 2,3,,,,,,,,,0,0,0,0,0,9,9,4,,,,,,,,,,,,,,,,,,,,,,,,,,,,,,,,,,,,,,,,,,,,,,,,,,3,259.56737160000193,None,['3'],0,[3.535778300007223],259.56737160000193,None,259.56737160000193,None,"[3.349159300007159, 5.099490699998569, 1.8796319999964908, 1.383560000002035, 1.81985590000113, 2.913106499996502, 1.910633899999084, 2.526488200004678, 1.6239104999986012, 3.535778300007223]",259.56737160000193,None,263.6467874000082,None,,,,,,,,,,,,,,,,,,,,,,,,,,,,,,,,,,,,,,,,,,,,,,,,,,,,,,,,,,,,,,,,,,,,,,,,,,,,,,,,,,,,,Pilot3,001,2019_Nov_19_1106,test_final,3.1.5,60.18860701693385,
Practice,2,(1/1) - 1,0,,,,,,,,,0,0,0,0,0,10,10,1,,,,,,,,,,,,,,,,,,,,,,,,,,,,,,,,,,,,,,,,,,,,,,,,,,0,265.1453462000063,None,['0'],0,[2.4888523000117857],265.1453462000063,None,265.1453462000063,None,"[3.349159300007159, 5.099490699998569, 1.8796319999964908, 1.383560000002035, 1.81985590000113, 2.913106499996502, 1.910633899999084, 2.526488200004678, 1.6239104999986012, 3.535778300007223, 2.4888523000117857]",265.1453462000063,None,268.17567060000147,None,,,,,,,,,,,,,,,,,,,,,,,,,,,,,,,,,,,,,,,,,,,,,,,,,,,,,,,,,,,,,,,,,,,,,,,,,,,,,,,,,,,,,Pilot3,001,2019_Nov_19_1106,test_final,3.1.5,60.18860701693385,
Practice,9,(4/2) + 5,7,,,,,,,,,0,0,0,0,0,11,11,8,,,,,,,,,,,,,,,,,,,,,,,,,,,,,,,,,,,,,,,,,,,,,,,,,,7,269.67434440000216,None,['7'],0,[2.2142236000072444],269.67434440000216,None,269.67434440000216,None,"[3.349159300007159, 5.099490699998569, 1.8796319999964908, 1.383560000002035, 1.81985590000113, 2.913106499996502, 1.910633899999084, 2.526488200004678, 1.6239104999986012, 3.535778300007223, 2.4888523000117857, 2.2142236000072444]",269.67434440000216,None,272.4216742999997,None,,,,,,,,,,,,,,,,,,,,,,,,,,,,,,,,,,,,,,,,,,,,,,,,,,,,,,,,,,,,,,,,,,,,,,,,,,,,,,,,,,,,,Pilot3,001,2019_Nov_19_1106,test_final,3.1.5,60.18860701693385,
Practice,1,(1x2) + 1,3,,,,,,,,,0,0,0,0,0,12,12,0,,,,,,,,,,,,,,,,,,,,,,,,,,,,,,,,,,,,,,,,,,,,,,,,,,3,273.92018500000995,None,['3'],0,[1.654215499991551],273.92018500000995,None,273.92018500000995,None,"[3.349159300007159, 5.099490699998569, 1.8796319999964908, 1.383560000002035, 1.81985590000113, 2.913106499996502, 1.910633899999084, 2.526488200004678, 1.6239104999986012, 3.535778300007223, 2.4888523000117857, 2.2142236000072444, 1.654215499991551]",273.92018500000995,None,276.11770790000446,None,,,,,,,,,,,,,,,,,,,,,,,,,,,,,,,,,,,,,,,,,,,,,,,,,,,,,,,,,,,,,,,,,,,,,,,,,,,,,,,,,,,,,Pilot3,001,2019_Nov_19_1106,test_final,3.1.5,60.18860701693385,
Practice,8,(3/3) + 5,6,,,,,,,,,0,0,0,0,0,13,13,7,,,,,,,,,,,,,,,,,,,,,,,,,,,,,,,,,,,,,,,,,,,,,,,,,,6,277.61641590000363,None,['6'],0,[2.222649099989212],277.61641590000363,None,277.61641590000363,None,"[3.349159300007159, 5.099490699998569, 1.8796319999964908, 1.383560000002035, 1.81985590000113, 2.913106499996502, 1.910633899999084, 2.526488200004678, 1.6239104999986012, 3.535778300007223, 2.4888523000117857, 2.2142236000072444, 1.654215499991551, 2.222649099989212]",277.61641590000363,None,280.380370400002,None,,,,,,,,,,,,,,,,,,,,,,,,,,,,,,,,,,,,,,,,,,,,,,,,,,,,,,,,,,,,,,,,,,,,,,,,,,,,,,,,,,,,,Pilot3,001,2019_Nov_19_1106,test_final,3.1.5,60.18860701693385,
Practice,14,(6/3) + 4 ,6,,,,,,,,,0,0,0,0,0,14,14,13,,,,,,,,,,,,,,,,,,,,,,,,,,,,,,,,,,,,,,,,,,,,,,,,,,6,281.8789098999987,None,['6'],0,[1.7914325000019744],281.8789098999987,None,281.8789098999987,None,"[3.349159300007159, 5.099490699998569, 1.8796319999964908, 1.383560000002035, 1.81985590000113, 2.913106499996502, 1.910633899999084, 2.526488200004678, 1.6239104999986012, 3.535778300007223, 2.4888523000117857, 2.2142236000072444, 1.654215499991551, 2.222649099989212, 1.7914325000019744]",281.8789098999987,None,284.2101188000088,None,,,,,,,,,,,,,,,,,,,,,,,,,,,,,,,,,,,,,,,,,,,,,,,,,,,,,,,,,,,,,,,,,,,,,,,,,,,,,,,,,,,,,Pilot3,001,2019_Nov_19_1106,test_final,3.1.5,60.18860701693385,
,,,,,,,,,,,,0,0,0,0,,,,,,,,,,,,,,,,,,,,,,,,,,,,,,,,,,,,,,,,,,,,,,,,,,,,,,,,,,,,,,,,,,,,,1.0,36.41298830001324,2.427532553334216,13.22875694950123,0.9391044297450357,4.8504219820764085,285.70875550000346,None,space,2.519187099998817,285.70875550000346,None,,,,,,,,,,,,,,,,,,,,,,,,,,,,,,,,,,,,,,,,,,,,,,,,,,,,,,,,,,,,,,,,,,,,,,,,,Pilot3,001,2019_Nov_19_1106,test_final,3.1.5,60.18860701693385,
,,,,,,,,,,,,,,,,,,,,,,,,,,,,,,,,,,,,,,,,,,,,,,,,,,,,,,,,,,,,,,,,,,,,,,,,,,,,,,,,,,,,,,,,,,,,,,,,288.78884750000725,None,space,14.077564099992742,288.78884750000725,None,,,,,,,,,,,,,,,,,,,,,,,,,,,,,,,,,,,,,,,,,,,,,,,,,,,,,,,,,,,,,,,,,,,Pilot3,001,2019_Nov_19_1106,test_final,3.1.5,60.18860701693385,
Practice,11,(5x3) - 7,8,,,,,,,,,,,,,,,,,0,0,0,0,0,0,0,0,0,0,0,10,,,,,,,,,,,,,,,,,,,,,,,,,,,,,,,,,,,,,,8,,,,,,,,,,,,,,,,,,,,,,,,,,,,,,,,,303.4580922000023,None,['8'],0,[1.7266732999996748],303.4580922000023,None,303.4580922000023,None,303.4580922000023,None,1,305.28025419999904,None,305.28025419999904,None,,,,,,,,,,,,,,,,,,,,,,,,,,,,,,,,,,,,,,,,,,,,,,,,,,,Pilot3,001,2019_Nov_19_1106,test_final,3.1.5,60.18860701693385,
,,,,,,,,,,,,,,,,,,,,0,0,0,0,0,0,0,0,,,,,,,,,,,,,,,,,,,,,,,,,,,,,,,,,,,,,,,,,,,,,,,,,,,,,,,,,,,,,,,,,,,,,,,,,,,,,,,,,,,,,,,,,,,306.6214611000032,None,,,,,,,,,,,,,,,,,,,,,,,,,,,,,,,,,,,,,,,,,,,,,,,,,Pilot3,001,2019_Nov_19_1106,test_final,3.1.5,60.18860701693385,
Practice,12,(8/2) + 4,8,,,,,,,,,,,,,,,,,0,0,0,0,1,0,1,0,0,0,0,11,,,,,,,,,,,,,,,,,,,,,,,,,,,,,,,,,,,,,,8,,,,,,,,,,,,,,,,,,,,,,,,,,,,,,,,,307.9201175000053,None,['8'],0,[4.0875078000099165],307.9201175000053,None,307.9201175000053,None,307.9201175000053,None,1,312.09830019999936,None,312.09830019999936,None,,,,,,,,,,,,,,,,,,,,,,,,,,,,,,,,,,,,,,,,,,,,,,,,,,,Pilot3,001,2019_Nov_19_1106,test_final,3.1.5,60.18860701693385,
,,,,,,,,,,,,,,,,,,,,0,0,0,0,1,0,1,0,,,,,,,,,,,,,,,,,,,,,,,,,,,,,,,,,,,,,,,,,,,,,,,,,,,,,,,,,,,,,,,,,,,,,,,,,,,,,,,,,,,,,,,,,,,313.4316422999982,None,,,,,,,,,,,,,,,,,,,,,,,,,,,,,,,,,,,,,,,,,,,,,,,,,Pilot3,001,2019_Nov_19_1106,test_final,3.1.5,60.18860701693385,
,,,,,,,,,,,,,,,,,,,,0,0,0,0,,,,,,,,,,,,,,,,,,,,,,,,,,,,,,,,,,,,,,,,,,,,,,,,,,,,,,,,,,,,,,,,,,,,,,,,,,,,,,,,,,,,,,,,,,,,,,,,,1,['1'],0,"[5.899488099996233, 6.119774299993878]",314.7303088000044,None,314.7303088000044,None,314.7303088000044,None,0,321.40688789999695,None,,,,,,,,,,,,,,,,,,,,,,,,,,,,,,,,,,,,Pilot3,001,2019_Nov_19_1106,test_final,3.1.5,60.18860701693385,
Practice,7,(4x6) - 17,7,,,,,,,,,,,,,,,,,1,0,1,0,0,0,0,0,0,0,0,6,,,,,,,,,,,,,,,,,,,,,,,,,,,,,,,,,,,,,,,,,,,,,,,,,,,,,,,,,,,,,,,,,,,,,,,322.9388500000059,None,None,0,,322.9388500000059,None,322.9388500000059,None,322.9388500000059,None,0,327.8568396000046,None,327.8568396000046,None,,,,,,,,,,,,,,,,,,,,,,,,,,,,,,,,,,,,,,,,,,,,,,,,,,,Pilot3,001,2019_Nov_19_1106,test_final,3.1.5,60.18860701693385,
Practice,11,(5x3) - 7,8,,,,,,,,,,,,,,,,,1,0,1,0,0,0,0,0,0,1,1,10,,,,,,,,,,,,,,,,,,,,,,,,,,,,,,,,,,,,,,7,,,,,,,,,,,,,,,,,,,,,,,,,,,,,,,,,329.19918280000275,None,['7'],0,[2.244430699996883],329.19918280000275,None,329.19918280000275,None,329.19918280000275,None,0,331.5214127000072,None,331.5214127000072,None,,,,,,,,,,,,,,,,,,,,,,,,,,,,,,,,,,,,,,,,,,,,,,,,,,,Pilot3,001,2019_Nov_19_1106,test_final,3.1.5,60.18860701693385,
Practice,2,(1/1) - 1,0,,,,,,,,,,,,,,,,,1,0,1,0,0,0,0,0,0,2,2,1,,,,,,,,,,,,,,,,,,,,,,,,,,,,,,,,,,,,,,0,,,,,,,,,,,,,,,,,,,,,,,,,,,,,,,,,332.8457191000052,None,['0'],0,[2.049327300002915],332.8457191000052,None,332.8457191000052,None,332.8457191000052,None,1,334.959448900001,None,334.959448900001,None,,,,,,,,,,,,,,,,,,,,,,,,,,,,,,,,,,,,,,,,,,,,,,,,,,,Pilot3,001,2019_Nov_19_1106,test_final,3.1.5,60.18860701693385,
,,,,,,,,,,,,,,,,,,,,1,0,1,0,0,0,0,0,,,,,,,,,,,,,,,,,,,,,,,,,,,,,,,,,,,,,,,,,,,,,,,,,,,,,,,,,,,,,,,,,,,,,,,,,,,,,,,,,,,,,,,,,,,336.27582789999724,None,,,,,,,,,,,,,,,,,,,,,,,,,,,,,,,,,,,,,,,,,,,,,,,,,Pilot3,001,2019_Nov_19_1106,test_final,3.1.5,60.18860701693385,
Practice,7,(4x6) - 17,7,,,,,,,,,,,,,,,,,1,0,1,0,1,0,1,0,0,0,0,6,,,,,,,,,,,,,,,,,,,,,,,,,,,,,,,,,,,,,,7,,,,,,,,,,,,,,,,,,,,,,,,,,,,,,,,,337.60772130000987,None,['7'],0,[4.228741400002036],337.60772130000987,None,337.60772130000987,None,337.60772130000987,None,1,341.9297140999988,None,341.9297140999988,None,,,,,,,,,,,,,,,,,,,,,,,,,,,,,,,,,,,,,,,,,,,,,,,,,,,Pilot3,001,2019_Nov_19_1106,test_final,3.1.5,60.18860701693385,
,,,,,,,,,,,,,,,,,,,,1,0,1,0,1,0,1,0,,,,,,,,,,,,,,,,,,,,,,,,,,,,,,,,,,,,,,,,,,,,,,,,,,,,,,,,,,,,,,,,,,,,,,,,,,,,,,,,,,,,,,,,,,,343.2688205000013,None,,,,,,,,,,,,,,,,,,,,,,,,,,,,,,,,,,,,,,,,,,,,,,,,,Pilot3,001,2019_Nov_19_1106,test_final,3.1.5,60.18860701693385,
,,,,,,,,,,,,,,,,,,,,1,0,1,0,,,,,,,,,,,,,,,,,,,,,,,,,,,,,,,,,,,,,,,,,,,,,,,,,,,,,,,,,,,,,,,,,,,,,,,,,,,,,,,,,,,,,,,,,,,,,,,,,ntx,"['n', 't', 'x']",0,"[3.720123399994918, 6.602679699994042, 7.566748299999745, 7.767798799992306, 8.038304000001517, 8.359452499993495, 8.712411999993492]",344.550879500006,None,344.550879500006,None,344.550879500006,None,0,353.8247616000008,None,,,,,,,,,,,,,,,,,,,,,,,,,,,,,,,,,,,,Pilot3,001,2019_Nov_19_1106,test_final,3.1.5,60.18860701693385,
Practice,1,(1x2) + 1,3,,,,,,,,,,,,,,,,,2,0,2,0,0,0,0,0,0,0,0,0,,,,,,,,,,,,,,,,,,,,,,,,,,,,,,,,,,,,,,3,,,,,,,,,,,,,,,,,,,,,,,,,,,,,,,,,355.3736823000072,None,['3'],0,[3.2577232000039658],355.3736823000072,None,355.3736823000072,None,355.3736823000072,None,1,358.7296537000075,None,358.7296537000075,None,,,,,,,,,,,,,,,,,,,,,,,,,,,,,,,,,,,,,,,,,,,,,,,,,,,Pilot3,001,2019_Nov_19_1106,test_final,3.1.5,60.18860701693385,
,,,,,,,,,,,,,,,,,,,,2,0,2,0,0,0,0,0,,,,,,,,,,,,,,,,,,,,,,,,,,,,,,,,,,,,,,,,,,,,,,,,,,,,,,,,,,,,,,,,,,,,,,,,,,,,,,,,,,,,,,,,,,,360.0526034000068,None,,,,,,,,,,,,,,,,,,,,,,,,,,,,,,,,,,,,,,,,,,,,,,,,,Pilot3,001,2019_Nov_19_1106,test_final,3.1.5,60.18860701693385,
Practice,4,(4x4) - 14,2,,,,,,,,,,,,,,,,,2,0,2,0,1,0,1,0,0,0,0,3,,,,,,,,,,,,,,,,,,,,,,,,,,,,,,,,,,,,,,2,,,,,,,,,,,,,,,,,,,,,,,,,,,,,,,,,361.3677317999973,None,['2'],0,[2.2229214000108186],361.3677317999973,None,361.3677317999973,None,361.3677317999973,None,1,363.68667650000134,None,363.68667650000134,None,,,,,,,,,,,,,,,,,,,,,,,,,,,,,,,,,,,,,,,,,,,,,,,,,,,Pilot3,001,2019_Nov_19_1106,test_final,3.1.5,60.18860701693385,
,,,,,,,,,,,,,,,,,,,,2,0,2,0,1,0,1,0,,,,,,,,,,,,,,,,,,,,,,,,,,,,,,,,,,,,,,,,,,,,,,,,,,,,,,,,,,,,,,,,,,,,,,,,,,,,,,,,,,,,,,,,,,,365.01418379999814,None,,,,,,,,,,,,,,,,,,,,,,,,,,,,,,,,,,,,,,,,,,,,,,,,,Pilot3,001,2019_Nov_19_1106,test_final,3.1.5,60.18860701693385,
,,,,,,,,,,,,,,,,,,,,2,0,2,0,,,,,,,,,,,,,,,,,,,,,,,,,,,,,,,,,,,,,,,,,,,,,,,,,,,,,,,,,,,,,,,,,,,,,,,,,,,,,,,,,,,,,,,,,,,,,,,,,zt,"['z', 't']",0,"[1.5673966000031214, 1.8192400999978418, 2.0294635000027483]",366.2964864000096,None,366.2964864000096,None,366.2964864000096,None,1,368.87690440000733,None,,,,,,,,,,,,,,,,,,,,,,,,,,,,,,,,,,,,Pilot3,001,2019_Nov_19_1106,test_final,3.1.5,60.18860701693385,
Practice,6,(2x6) - 8,4,,,,,,,,,,,,,,,,,3,0,3,0,0,0,0,0,0,0,0,5,,,,,,,,,,,,,,,,,,,,,,,,,,,,,,,,,,,,,,4,,,,,,,,,,,,,,,,,,,,,,,,,,,,,,,,,370.39225190000434,None,['4'],0,[2.377997100003995],370.39225190000434,None,370.39225190000434,None,370.39225190000434,None,1,372.860207500009,None,372.860207500009,None,,,,,,,,,,,,,,,,,,,,,,,,,,,,,,,,,,,,,,,,,,,,,,,,,,,Pilot3,001,2019_Nov_19_1106,test_final,3.1.5,60.18860701693385,
,,,,,,,,,,,,,,,,,,,,3,0,3,0,0,0,0,0,,,,,,,,,,,,,,,,,,,,,,,,,,,,,,,,,,,,,,,,,,,,,,,,,,,,,,,,,,,,,,,,,,,,,,,,,,,,,,,,,,,,,,,,,,,374.20525230000203,None,,,,,,,,,,,,,,,,,,,,,,,,,,,,,,,,,,,,,,,,,,,,,,,,,Pilot3,001,2019_Nov_19_1106,test_final,3.1.5,60.18860701693385,
Practice,13,(3x8) - 19 ,5,,,,,,,,,,,,,,,,,3,0,3,0,1,0,1,0,0,0,0,12,,,,,,,,,,,,,,,,,,,,,,,,,,,,,,,,,,,,,,5,,,,,,,,,,,,,,,,,,,,,,,,,,,,,,,,,375.5205111000105,None,['5'],0,[1.3429482999927131],375.5205111000105,None,375.5205111000105,None,375.5205111000105,None,1,376.94358730000386,None,376.94358730000386,None,,,,,,,,,,,,,,,,,,,,,,,,,,,,,,,,,,,,,,,,,,,,,,,,,,,Pilot3,001,2019_Nov_19_1106,test_final,3.1.5,60.18860701693385,
,,,,,,,,,,,,,,,,,,,,3,0,3,0,1,0,1,0,,,,,,,,,,,,,,,,,,,,,,,,,,,,,,,,,,,,,,,,,,,,,,,,,,,,,,,,,,,,,,,,,,,,,,,,,,,,,,,,,,,,,,,,,,,378.2845354000019,None,,,,,,,,,,,,,,,,,,,,,,,,,,,,,,,,,,,,,,,,,,,,,,,,,Pilot3,001,2019_Nov_19_1106,test_final,3.1.5,60.18860701693385,
,,,,,,,,,,,,,,,,,,,,3,0,3,0,,,,,,,,,,,,,,,,,,,,,,,,,,,,,,,,,,,,,,,,,,,,,,,,,,,,,,,,,,,,,,,,,,,,,,,,,,,,,,,,,,,,,,,,,,,,,,,,,xv,"['x', 'v']",0,"[0.7773210999876028, 0.9901618999865605, 1.46342949999962]",379.5666554000054,None,379.5666554000054,None,379.5666554000054,None,1,381.5806231000024,None,,,,,,,,,,,,,,,,,,,,,,,,,,,,,,,,,,,,Pilot3,001,2019_Nov_19_1106,test_final,3.1.5,60.18860701693385,
Practice,14,(6/3) + 4 ,6,,,,,,,,,,,,,,,,,4,0,4,0,0,0,0,0,0,0,0,13,,,,,,,,,,,,,,,,,,,,,,,,,,,,,,,,,,,,,,6,,,,,,,,,,,,,,,,,,,,,,,,,,,,,,,,,383.11338120000437,None,['6'],0,[1.883950499992352],383.11338120000437,None,383.11338120000437,None,383.11338120000437,None,1,385.10486449999735,None,385.10486449999735,None,,,,,,,,,,,,,,,,,,,,,,,,,,,,,,,,,,,,,,,,,,,,,,,,,,,Pilot3,001,2019_Nov_19_1106,test_final,3.1.5,60.18860701693385,
,,,,,,,,,,,,,,,,,,,,4,0,4,0,0,0,0,0,,,,,,,,,,,,,,,,,,,,,,,,,,,,,,,,,,,,,,,,,,,,,,,,,,,,,,,,,,,,,,,,,,,,,,,,,,,,,,,,,,,,,,,,,,,386.4264136999991,None,,,,,,,,,,,,,,,,,,,,,,,,,,,,,,,,,,,,,,,,,,,,,,,,,Pilot3,001,2019_Nov_19_1106,test_final,3.1.5,60.18860701693385,
Practice,6,(2x6) - 8,4,,,,,,,,,,,,,,,,,4,0,4,0,1,0,1,0,0,0,0,5,,,,,,,,,,,,,,,,,,,,,,,,,,,,,,,,,,,,,,4,,,,,,,,,,,,,,,,,,,,,,,,,,,,,,,,,387.75866030000907,None,['4'],0,[1.6736555000097724],387.75866030000907,None,387.75866030000907,None,387.75866030000907,None,1,389.53892910000286,None,389.53892910000286,None,,,,,,,,,,,,,,,,,,,,,,,,,,,,,,,,,,,,,,,,,,,,,,,,,,,Pilot3,001,2019_Nov_19_1106,test_final,3.1.5,60.18860701693385,
,,,,,,,,,,,,,,,,,,,,4,0,4,0,1,0,1,0,,,,,,,,,,,,,,,,,,,,,,,,,,,,,,,,,,,,,,,,,,,,,,,,,,,,,,,,,,,,,,,,,,,,,,,,,,,,,,,,,,,,,,,,,,,390.8556912000058,None,,,,,,,,,,,,,,,,,,,,,,,,,,,,,,,,,,,,,,,,,,,,,,,,,Pilot3,001,2019_Nov_19_1106,test_final,3.1.5,60.18860701693385,
,,,,,,,,,,,,,,,,,,,,4,0,4,0,,,,,,,,,,,,,,,,,,,,,,,,,,,,,,,,,,,,,,,,,,,,,,,,,,,,,,,,,,,,,,,,,,,,,,,,,,,,,,,,,,,,,,,,,,,,,,,,,rs,"['r', 's']",0,"[0.6531420999963302, 0.7701885999995284, 1.1405683000048157]",392.1544932000106,None,392.1544932000106,None,392.1544932000106,None,1,393.85229350000736,None,,,,,,,,,,,,,,,,,,,,,,,,,,,,,,,,,,,,Pilot3,001,2019_Nov_19_1106,test_final,3.1.5,60.18860701693385,
,,,,,,,,,,,,,,,,,,,,,,,,,,,,,,,,,,,,,,,,,,,,,,,,,,,,,,,,,,,,,,,,,,,,,,,,,,,,,,,,,,,,,,,,,,,,,,,,,,,,,,,,,,,,,,,,,,,,,,,,,,,,,,,,,,,,,395.3683888000087,None,space,7.88248040000326,395.3683888000087,None,,,,,,,,,,,,,,,,,,,,,,,,,,,,,,Pilot3,001,2019_Nov_19_1106,test_final,3.1.5,60.18860701693385,
Practice,4,(4x4) - 14,2,,,,,,,,,,,,,,,,,,,,,,,,,,,,,0,0,0,0,0,0,0,0,0,0,0,3,,,,,,,,,,,,,,,,,,,,,,,,,,2,,,,,,,,,,,,,,,,,,,,,,,,,,,,,,,,,,,,,,,,,,,,1,,,,,,,,,,,,,,,,,,,,,,,,,,403.84288820000074,None,['2'],0,[1.9341054999968037],403.84288820000074,None,403.84288820000074,None,403.84288820000074,None,405.8845061000029,None,405.8845061000029,None,,,,,,,,,,,,,,,Pilot3,001,2019_Nov_19_1106,test_final,3.1.5,60.18860701693385,
,,,,,,,,,,,,,,,,,,,,,,,,,,,,,,,,0,0,0,0,0,0,0,0,,,,,,,,,,,,,,,,,,,,,,,,,,,,,,,,,,,,,,,,,,,,,,,,,,,,,,,,,,,,,,,,,,,,,,,,,,,,,,,,,,,,,,,,,,,,,,,,,,,,,,,,,,,,,,,,,,,407.22277340000437,None,,,,,,,,,,,,,Pilot3,001,2019_Nov_19_1106,test_final,3.1.5,60.18860701693385,
Practice,2,(1/1) - 1,0,,,,,,,,,,,,,,,,,,,,,,,,,,,,,0,0,0,0,1,0,1,0,0,0,0,1,,,,,,,,,,,,,,,,,,,,,,,,,,0,,,,,,,,,,,,,,,,,,,,,,,,,,,,,,,,,,,,,,,,,,,,1,,,,,,,,,,,,,,,,,,,,,,,,,,408.5384486999974,None,['0'],0,[1.8470089999900665],408.5384486999974,None,408.5384486999974,None,408.5384486999974,None,410.47207440000784,None,410.47207440000784,None,,,,,,,,,,,,,,,Pilot3,001,2019_Nov_19_1106,test_final,3.1.5,60.18860701693385,
,,,,,,,,,,,,,,,,,,,,,,,,,,,,,,,,0,0,0,0,1,0,1,0,,,,,,,,,,,,,,,,,,,,,,,,,,,,,,,,,,,,,,,,,,,,,,,,,,,,,,,,,,,,,,,,,,,,,,,,,,,,,,,,,,,,,,,,,,,,,,,,,,,,,,,,,,,,,,,,,,,411.80185860001075,None,,,,,,,,,,,,,Pilot3,001,2019_Nov_19_1106,test_final,3.1.5,60.18860701693385,
,,,,,,,,,,,,,,,,,,,,,,,,,,,,,,,,0,0,0,0,,,,,,,,,,,,,,,,,,,,,,,,,,,,,,,,,,,,,,,,,,,,,,,,,,,,,,,,,,,,,,,,,,,,,,,,,,,,,,,,,,,,,,,,,,,,,,,,,,,,,,,,,,,,,,,,,,,,,,,,,sz,"['s', 'z']",0,"[0.306292500012205, 0.5507740000030026, 0.8697580000007292]",413.1006974000047,None,413.1006974000047,None,1,SZ,413.1006974000047,None,Pilot3,001,2019_Nov_19_1106,test_final,3.1.5,60.18860701693385,
Practice,4,(4x4) - 14,2,,,,,,,,,,,,,,,,,,,,,,,,,,,,,1,0,1,0,0,0,0,0,0,0,0,3,,,,,,,,,,,,,,,,,,,,,,,,,,2,,,,,,,,,,,,,,,,,,,,,,,,,,,,,,,,,,,,,,,,,,,,1,,,,,,,,,,,,,,,,,,,,,,,,,,414.56566439999733,None,['2'],0,[1.198281799996039],414.56566439999733,None,414.56566439999733,None,414.56566439999733,None,415.857534499999,None,415.857534499999,None,,,,,,,,,,,,,,,Pilot3,001,2019_Nov_19_1106,test_final,3.1.5,60.18860701693385,
,,,,,,,,,,,,,,,,,,,,,,,,,,,,,,,,1,0,1,0,0,0,0,0,,,,,,,,,,,,,,,,,,,,,,,,,,,,,,,,,,,,,,,,,,,,,,,,,,,,,,,,,,,,,,,,,,,,,,,,,,,,,,,,,,,,,,,,,,,,,,,,,,,,,,,,,,,,,,,,,,,417.21315740000864,None,,,,,,,,,,,,,Pilot3,001,2019_Nov_19_1106,test_final,3.1.5,60.18860701693385,
Practice,9,(4/2) + 5,7,,,,,,,,,,,,,,,,,,,,,,,,,,,,,1,0,1,0,1,0,1,0,0,0,0,8,,,,,,,,,,,,,,,,,,,,,,,,,,7,,,,,,,,,,,,,,,,,,,,,,,,,,,,,,,,,,,,,,,,,,,,1,,,,,,,,,,,,,,,,,,,,,,,,,,418.5284793000028,None,['7'],0,[1.6117037999938475],418.5284793000028,None,418.5284793000028,None,418.5284793000028,None,420.206818000006,None,420.206818000006,None,,,,,,,,,,,,,,,Pilot3,001,2019_Nov_19_1106,test_final,3.1.5,60.18860701693385,
,,,,,,,,,,,,,,,,,,,,,,,,,,,,,,,,1,0,1,0,1,0,1,0,,,,,,,,,,,,,,,,,,,,,,,,,,,,,,,,,,,,,,,,,,,,,,,,,,,,,,,,,,,,,,,,,,,,,,,,,,,,,,,,,,,,,,,,,,,,,,,,,,,,,,,,,,,,,,,,,,,421.55883259999973,None,,,,,,,,,,,,,Pilot3,001,2019_Nov_19_1106,test_final,3.1.5,60.18860701693385,
Practice,14,(6/3) + 4 ,6,,,,,,,,,,,,,,,,,,,,,,,,,,,,,1,0,1,0,2,0,2,0,0,0,0,13,,,,,,,,,,,,,,,,,,,,,,,,,,6,,,,,,,,,,,,,,,,,,,,,,,,,,,,,,,,,,,,,,,,,,,,1,,,,,,,,,,,,,,,,,,,,,,,,,,422.8741968000104,None,['6'],0,[2.533981300002779],422.8741968000104,None,422.8741968000104,None,422.8741968000104,None,425.515135499998,None,425.515135499998,None,,,,,,,,,,,,,,,Pilot3,001,2019_Nov_19_1106,test_final,3.1.5,60.18860701693385,
,,,,,,,,,,,,,,,,,,,,,,,,,,,,,,,,1,0,1,0,2,0,2,0,,,,,,,,,,,,,,,,,,,,,,,,,,,,,,,,,,,,,,,,,,,,,,,,,,,,,,,,,,,,,,,,,,,,,,,,,,,,,,,,,,,,,,,,,,,,,,,,,,,,,,,,,,,,,,,,,,,426.8703894000064,None,,,,,,,,,,,,,Pilot3,001,2019_Nov_19_1106,test_final,3.1.5,60.18860701693385,
,,,,,,,,,,,,,,,,,,,,,,,,,,,,,,,,1,0,1,0,,,,,,,,,,,,,,,,,,,,,,,,,,,,,,,,,,,,,,,,,,,,,,,,,,,,,,,,,,,,,,,,,,,,,,,,,,,,,,,,,,,,,,,,,,,,,,,,,,,,,,,,,,,,,,,,,,,,,,,,,jzt,"['j', 'z', 't']",0,"[0.8814397999958601, 0.973713500003214, 1.189356399991084, 1.4544986999972025]",428.15256200000294,None,428.15256200000294,None,1,JZT,428.15256200000294,None,Pilot3,001,2019_Nov_19_1106,test_final,3.1.5,60.18860701693385,
Practice,3,(7x2) - 5,9,,,,,,,,,,,,,,,,,,,,,,,,,,,,,2,0,2,0,0,0,0,0,0,0,0,2,,,,,,,,,,,,,,,,,,,,,,,,,,9,,,,,,,,,,,,,,,,,,,,,,,,,,,,,,,,,,,,,,,,,,,,1,,,,,,,,,,,,,,,,,,,,,,,,,,430.19992620000266,None,['9'],0,[2.870577699999558],430.19992620000266,None,430.19992620000266,None,430.19992620000266,None,433.15140450000763,None,433.15140450000763,None,,,,,,,,,,,,,,,Pilot3,001,2019_Nov_19_1106,test_final,3.1.5,60.18860701693385,
,,,,,,,,,,,,,,,,,,,,,,,,,,,,,,,,2,0,2,0,0,0,0,0,,,,,,,,,,,,,,,,,,,,,,,,,,,,,,,,,,,,,,,,,,,,,,,,,,,,,,,,,,,,,,,,,,,,,,,,,,,,,,,,,,,,,,,,,,,,,,,,,,,,,,,,,,,,,,,,,,,434.49613189999945,None,,,,,,,,,,,,,Pilot3,001,2019_Nov_19_1106,test_final,3.1.5,60.18860701693385,
Practice,13,(3x8) - 19 ,5,,,,,,,,,,,,,,,,,,,,,,,,,,,,,2,0,2,0,1,0,1,0,0,0,0,12,,,,,,,,,,,,,,,,,,,,,,,,,,5,,,,,,,,,,,,,,,,,,,,,,,,,,,,,,,,,,,,,,,,,,,,1,,,,,,,,,,,,,,,,,,,,,,,,,,435.81160909999744,None,['5'],0,[1.3570901000057347],435.81160909999744,None,435.81160909999744,None,435.81160909999744,None,437.26261800000793,None,437.26261800000793,None,,,,,,,,,,,,,,,Pilot3,001,2019_Nov_19_1106,test_final,3.1.5,60.18860701693385,
,,,,,,,,,,,,,,,,,,,,,,,,,,,,,,,,2,0,2,0,1,0,1,0,,,,,,,,,,,,,,,,,,,,,,,,,,,,,,,,,,,,,,,,,,,,,,,,,,,,,,,,,,,,,,,,,,,,,,,,,,,,,,,,,,,,,,,,,,,,,,,,,,,,,,,,,,,,,,,,,,,438.5921643000038,None,,,,,,,,,,,,,Pilot3,001,2019_Nov_19_1106,test_final,3.1.5,60.18860701693385,
Practice,14,(6/3) + 4 ,6,,,,,,,,,,,,,,,,,,,,,,,,,,,,,2,0,2,0,2,0,2,0,0,0,0,13,,,,,,,,,,,,,,,,,,,,,,,,,,6,,,,,,,,,,,,,,,,,,,,,,,,,,,,,,,,,,,,,,,,,,,,1,,,,,,,,,,,,,,,,,,,,,,,,,,439.9241741000005,None,['6'],0,[1.5299514999933308],439.9241741000005,None,439.9241741000005,None,439.9241741000005,None,441.5392332000047,None,441.5392332000047,None,,,,,,,,,,,,,,,Pilot3,001,2019_Nov_19_1106,test_final,3.1.5,60.18860701693385,
,,,,,,,,,,,,,,,,,,,,,,,,,,,,,,,,2,0,2,0,2,0,2,0,,,,,,,,,,,,,,,,,,,,,,,,,,,,,,,,,,,,,,,,,,,,,,,,,,,,,,,,,,,,,,,,,,,,,,,,,,,,,,,,,,,,,,,,,,,,,,,,,,,,,,,,,,,,,,,,,,,442.87070140001015,None,,,,,,,,,,,,,Pilot3,001,2019_Nov_19_1106,test_final,3.1.5,60.18860701693385,
Practice,6,(2x6) - 8,4,,,,,,,,,,,,,,,,,,,,,,,,,,,,,2,0,2,0,3,0,3,0,0,0,0,5,,,,,,,,,,,,,,,,,,,,,,,,,,4,,,,,,,,,,,,,,,,,,,,,,,,,,,,,,,,,,,,,,,,,,,,1,,,,,,,,,,,,,,,,,,,,,,,,,,444.18623439999647,None,['4'],0,[1.281165799999144],444.18623439999647,None,444.18623439999647,None,444.18623439999647,None,445.5370552000095,None,445.5370552000095,None,,,,,,,,,,,,,,,Pilot3,001,2019_Nov_19_1106,test_final,3.1.5,60.18860701693385,
,,,,,,,,,,,,,,,,,,,,,,,,,,,,,,,,2,0,2,0,3,0,3,0,,,,,,,,,,,,,,,,,,,,,,,,,,,,,,,,,,,,,,,,,,,,,,,,,,,,,,,,,,,,,,,,,,,,,,,,,,,,,,,,,,,,,,,,,,,,,,,,,,,,,,,,,,,,,,,,,,,446.86671360000037,None,,,,,,,,,,,,,Pilot3,001,2019_Nov_19_1106,test_final,3.1.5,60.18860701693385,
,,,,,,,,,,,,,,,,,,,,,,,,,,,,,,,,2,0,2,0,,,,,,,,,,,,,,,,,,,,,,,,,,,,,,,,,,,,,,,,,,,,,,,,,,,,,,,,,,,,,,,,,,,,,,,,,,,,,,,,,,,,,,,,,,,,,,,,,,,,,,,,,,,,,,,,,,,,,,,,,trnv,"['t', 'r', 'n', 'v']",0,"[0.4843133999966085, 0.706789400006528, 0.966331400006311, 1.2615534000069601, 2.271143799996935]",448.1656676999992,None,448.1656676999992,None,1,TRNV,448.1656676999992,None,Pilot3,001,2019_Nov_19_1106,test_final,3.1.5,60.18860701693385,
Practice,8,(3/3) + 5,6,,,,,,,,,,,,,,,,,,,,,,,,,,,,,3,0,3,0,0,0,0,0,0,0,0,7,,,,,,,,,,,,,,,,,,,,,,,,,,6,,,,,,,,,,,,,,,,,,,,,,,,,,,,,,,,,,,,,,,,,,,,1,,,,,,,,,,,,,,,,,,,,,,,,,,451.01285199999984,None,['6'],0,[1.8910328000056325],451.01285199999984,None,451.01285199999984,None,451.01285199999984,None,452.97254010000324,None,452.97254010000324,None,,,,,,,,,,,,,,,Pilot3,001,2019_Nov_19_1106,test_final,3.1.5,60.18860701693385,
,,,,,,,,,,,,,,,,,,,,,,,,,,,,,,,,3,0,3,0,0,0,0,0,,,,,,,,,,,,,,,,,,,,,,,,,,,,,,,,,,,,,,,,,,,,,,,,,,,,,,,,,,,,,,,,,,,,,,,,,,,,,,,,,,,,,,,,,,,,,,,,,,,,,,,,,,,,,,,,,,,454.30957540000963,None,,,,,,,,,,,,,Pilot3,001,2019_Nov_19_1106,test_final,3.1.5,60.18860701693385,
Practice,9,(4/2) + 5,7,,,,,,,,,,,,,,,,,,,,,,,,,,,,,3,0,3,0,1,0,1,0,0,0,0,8,,,,,,,,,,,,,,,,,,,,,,,,,,7,,,,,,,,,,,,,,,,,,,,,,,,,,,,,,,,,,,,,,,,,,,,1,,,,,,,,,,,,,,,,,,,,,,,,,,455.6250102000049,None,['7'],0,[1.7533732000010787],455.6250102000049,None,455.6250102000049,None,455.6250102000049,None,457.451535900007,None,457.451535900007,None,,,,,,,,,,,,,,,Pilot3,001,2019_Nov_19_1106,test_final,3.1.5,60.18860701693385,
,,,,,,,,,,,,,,,,,,,,,,,,,,,,,,,,3,0,3,0,1,0,1,0,,,,,,,,,,,,,,,,,,,,,,,,,,,,,,,,,,,,,,,,,,,,,,,,,,,,,,,,,,,,,,,,,,,,,,,,,,,,,,,,,,,,,,,,,,,,,,,,,,,,,,,,,,,,,,,,,,,458.80587399999786,None,,,,,,,,,,,,,Pilot3,001,2019_Nov_19_1106,test_final,3.1.5,60.18860701693385,
Practice,14,(6/3) + 4 ,6,,,,,,,,,,,,,,,,,,,,,,,,,,,,,3,0,3,0,2,0,2,0,0,0,0,13,,,,,,,,,,,,,,,,,,,,,,,,,,6,,,,,,,,,,,,,,,,,,,,,,,,,,,,,,,,,,,,,,,,,,,,1,,,,,,,,,,,,,,,,,,,,,,,,,,460.1213788000023,None,['6'],0,[1.7317213999922387],460.1213788000023,None,460.1213788000023,None,460.1213788000023,None,461.91187060000084,None,461.91187060000084,None,,,,,,,,,,,,,,,Pilot3,001,2019_Nov_19_1106,test_final,3.1.5,60.18860701693385,
,,,,,,,,,,,,,,,,,,,,,,,,,,,,,,,,3,0,3,0,2,0,2,0,,,,,,,,,,,,,,,,,,,,,,,,,,,,,,,,,,,,,,,,,,,,,,,,,,,,,,,,,,,,,,,,,,,,,,,,,,,,,,,,,,,,,,,,,,,,,,,,,,,,,,,,,,,,,,,,,,,463.2682461000077,None,,,,,,,,,,,,,Pilot3,001,2019_Nov_19_1106,test_final,3.1.5,60.18860701693385,
Practice,12,(8/2) + 4,8,,,,,,,,,,,,,,,,,,,,,,,,,,,,,3,0,3,0,3,0,3,0,0,0,0,11,,,,,,,,,,,,,,,,,,,,,,,,,,8,,,,,,,,,,,,,,,,,,,,,,,,,,,,,,,,,,,,,,,,,,,,1,,,,,,,,,,,,,,,,,,,,,,,,,,464.5834545000107,None,['8'],0,[1.8470945000008214],464.5834545000107,None,464.5834545000107,None,464.5834545000107,None,466.52057370000693,None,466.52057370000693,None,,,,,,,,,,,,,,,Pilot3,001,2019_Nov_19_1106,test_final,3.1.5,60.18860701693385,
,,,,,,,,,,,,,,,,,,,,,,,,,,,,,,,,3,0,3,0,3,0,3,0,,,,,,,,,,,,,,,,,,,,,,,,,,,,,,,,,,,,,,,,,,,,,,,,,,,,,,,,,,,,,,,,,,,,,,,,,,,,,,,,,,,,,,,,,,,,,,,,,,,,,,,,,,,,,,,,,,,467.8635491000023,None,,,,,,,,,,,,,Pilot3,001,2019_Nov_19_1106,test_final,3.1.5,60.18860701693385,
Practice,10,(8/4) + 3,5,,,,,,,,,,,,,,,,,,,,,,,,,,,,,3,0,3,0,4,0,4,0,0,0,0,9,,,,,,,,,,,,,,,,,,,,,,,,,,5,,,,,,,,,,,,,,,,,,,,,,,,,,,,,,,,,,,,,,,,,,,,1,,,,,,,,,,,,,,,,,,,,,,,,,,469.17897360000643,None,['5'],0,[2.1035160000028554],469.17897360000643,None,469.17897360000643,None,469.17897360000643,None,471.37430960001075,None,471.37430960001075,None,,,,,,,,,,,,,,,Pilot3,001,2019_Nov_19_1106,test_final,3.1.5,60.18860701693385,
,,,,,,,,,,,,,,,,,,,,,,,,,,,,,,,,3,0,3,0,4,0,4,0,,,,,,,,,,,,,,,,,,,,,,,,,,,,,,,,,,,,,,,,,,,,,,,,,,,,,,,,,,,,,,,,,,,,,,,,,,,,,,,,,,,,,,,,,,,,,,,,,,,,,,,,,,,,,,,,,,,472.72544870000274,None,,,,,,,,,,,,,Pilot3,001,2019_Nov_19_1106,test_final,3.1.5,60.18860701693385,
,,,,,,,,,,,,,,,,,,,,,,,,,,,,,,,,3,0,3,0,,,,,,,,,,,,,,,,,,,,,,,,,,,,,,,,,,,,,,,,,,,,,,,,,,,,,,,,,,,,,,,,,,,,,,,,,,,,,,,,,,,,,,,,,,,,,,,,,,,,,,,,,,,,,,,,,,,,,,,,,lxvtq,"['l', 'x', 'v', 't', 'q']",0,"[0.9518095000094036, 1.2043402999988757, 1.5083983000076842, 1.7560999999986961, 2.29697060000035, 2.5983631999988575]",474.00750570000673,None,474.00750570000673,None,1,LXVTQ,474.00750570000673,None,Pilot3,001,2019_Nov_19_1106,test_final,3.1.5,60.18860701693385,
Practice,14,(6/3) + 4 ,6,,,,,,,,,,,,,,,,,,,,,,,,,,,,,4,0,4,0,0,0,0,0,0,0,0,13,,,,,,,,,,,,,,,,,,,,,,,,,,6,,,,,,,,,,,,,,,,,,,,,,,,,,,,,,,,,,,,,,,,,,,,1,,,,,,,,,,,,,,,,,,,,,,,,,,477.1878069000086,None,['6'],0,[1.3930796999920858],477.1878069000086,None,477.1878069000086,None,477.1878069000086,None,478.67085249999946,None,478.67085249999946,None,,,,,,,,,,,,,,,Pilot3,001,2019_Nov_19_1106,test_final,3.1.5,60.18860701693385,
,,,,,,,,,,,,,,,,,,,,,,,,,,,,,,,,4,0,4,0,0,0,0,0,,,,,,,,,,,,,,,,,,,,,,,,,,,,,,,,,,,,,,,,,,,,,,,,,,,,,,,,,,,,,,,,,,,,,,,,,,,,,,,,,,,,,,,,,,,,,,,,,,,,,,,,,,,,,,,,,,,480.01815930000157,None,,,,,,,,,,,,,Pilot3,001,2019_Nov_19_1106,test_final,3.1.5,60.18860701693385,
Practice,5,(3/3) + 2,3,,,,,,,,,,,,,,,,,,,,,,,,,,,,,4,0,4,0,1,0,1,0,0,0,0,4,,,,,,,,,,,,,,,,,,,,,,,,,,3,,,,,,,,,,,,,,,,,,,,,,,,,,,,,,,,,,,,,,,,,,,,1,,,,,,,,,,,,,,,,,,,,,,,,,,481.3338039000082,None,['3'],0,[2.1106777999957558],481.3338039000082,None,481.3338039000082,None,481.3338039000082,None,483.528487100004,None,483.528487100004,None,,,,,,,,,,,,,,,Pilot3,001,2019_Nov_19_1106,test_final,3.1.5,60.18860701693385,
,,,,,,,,,,,,,,,,,,,,,,,,,,,,,,,,4,0,4,0,1,0,1,0,,,,,,,,,,,,,,,,,,,,,,,,,,,,,,,,,,,,,,,,,,,,,,,,,,,,,,,,,,,,,,,,,,,,,,,,,,,,,,,,,,,,,,,,,,,,,,,,,,,,,,,,,,,,,,,,,,,484.88034800000605,None,,,,,,,,,,,,,Pilot3,001,2019_Nov_19_1106,test_final,3.1.5,60.18860701693385,
Practice,3,(7x2) - 5,9,,,,,,,,,,,,,,,,,,,,,,,,,,,,,4,0,4,0,2,0,2,0,0,0,0,2,,,,,,,,,,,,,,,,,,,,,,,,,,9,,,,,,,,,,,,,,,,,,,,,,,,,,,,,,,,,,,,,,,,,,,,1,,,,,,,,,,,,,,,,,,,,,,,,,,486.19548180000857,None,['9'],0,[1.8874183000007179],486.19548180000857,None,486.19548180000857,None,486.19548180000857,None,488.17594810000446,None,488.17594810000446,None,,,,,,,,,,,,,,,Pilot3,001,2019_Nov_19_1106,test_final,3.1.5,60.18860701693385,
,,,,,,,,,,,,,,,,,,,,,,,,,,,,,,,,4,0,4,0,2,0,2,0,,,,,,,,,,,,,,,,,,,,,,,,,,,,,,,,,,,,,,,,,,,,,,,,,,,,,,,,,,,,,,,,,,,,,,,,,,,,,,,,,,,,,,,,,,,,,,,,,,,,,,,,,,,,,,,,,,,489.5253464999987,None,,,,,,,,,,,,,Pilot3,001,2019_Nov_19_1106,test_final,3.1.5,60.18860701693385,
Practice,12,(8/2) + 4,8,,,,,,,,,,,,,,,,,,,,,,,,,,,,,4,0,4,0,3,0,3,0,0,0,0,11,,,,,,,,,,,,,,,,,,,,,,,,,,8,,,,,,,,,,,,,,,,,,,,,,,,,,,,,,,,,,,,,,,,,,,,1,,,,,,,,,,,,,,,,,,,,,,,,,,490.84110150000197,None,['8'],0,[1.6844189999974333],490.84110150000197,None,490.84110150000197,None,490.84110150000197,None,492.6161326000001,None,492.6161326000001,None,,,,,,,,,,,,,,,Pilot3,001,2019_Nov_19_1106,test_final,3.1.5,60.18860701693385,
,,,,,,,,,,,,,,,,,,,,,,,,,,,,,,,,4,0,4,0,3,0,3,0,,,,,,,,,,,,,,,,,,,,,,,,,,,,,,,,,,,,,,,,,,,,,,,,,,,,,,,,,,,,,,,,,,,,,,,,,,,,,,,,,,,,,,,,,,,,,,,,,,,,,,,,,,,,,,,,,,,493.95452379999915,None,,,,,,,,,,,,,Pilot3,001,2019_Nov_19_1106,test_final,3.1.5,60.18860701693385,
Practice,5,(3/3) + 2,3,,,,,,,,,,,,,,,,,,,,,,,,,,,,,4,0,4,0,4,0,4,0,0,0,0,4,,,,,,,,,,,,,,,,,,,,,,,,,,3,,,,,,,,,,,,,,,,,,,,,,,,,,,,,,,,,,,,,,,,,,,,1,,,,,,,,,,,,,,,,,,,,,,,,,,495.2866217999981,None,['3'],0,[1.3811780999967596],495.2866217999981,None,495.2866217999981,None,495.2866217999981,None,496.7624616999965,None,496.7624616999965,None,,,,,,,,,,,,,,,Pilot3,001,2019_Nov_19_1106,test_final,3.1.5,60.18860701693385,
,,,,,,,,,,,,,,,,,,,,,,,,,,,,,,,,4,0,4,0,4,0,4,0,,,,,,,,,,,,,,,,,,,,,,,,,,,,,,,,,,,,,,,,,,,,,,,,,,,,,,,,,,,,,,,,,,,,,,,,,,,,,,,,,,,,,,,,,,,,,,,,,,,,,,,,,,,,,,,,,,,498.1172443999967,None,,,,,,,,,,,,,Pilot3,001,2019_Nov_19_1106,test_final,3.1.5,60.18860701693385,
Practice,10,(8/4) + 3,5,,,,,,,,,,,,,,,,,,,,,,,,,,,,,4,0,4,0,5,0,5,0,0,0,0,9,,,,,,,,,,,,,,,,,,,,,,,,,,5,,,,,,,,,,,,,,,,,,,,,,,,,,,,,,,,,,,,,,,,,,,,1,,,,,,,,,,,,,,,,,,,,,,,,,,499.41620750000584,None,['5'],0,[2.453886000002967],499.41620750000584,None,499.41620750000584,None,499.41620750000584,None,501.9584643999988,None,501.9584643999988,None,,,,,,,,,,,,,,,Pilot3,001,2019_Nov_19_1106,test_final,3.1.5,60.18860701693385,
,,,,,,,,,,,,,,,,,,,,,,,,,,,,,,,,4,0,4,0,5,0,5,0,,,,,,,,,,,,,,,,,,,,,,,,,,,,,,,,,,,,,,,,,,,,,,,,,,,,,,,,,,,,,,,,,,,,,,,,,,,,,,,,,,,,,,,,,,,,,,,,,,,,,,,,,,,,,,,,,,,503.2955360000051,None,,,,,,,,,,,,,Pilot3,001,2019_Nov_19_1106,test_final,3.1.5,60.18860701693385,
,,,,,,,,,,,,,,,,,,,,,,,,,,,,,,,,4,0,4,0,,,,,,,,,,,,,,,,,,,,,,,,,,,,,,,,,,,,,,,,,,,,,,,,,,,,,,,,,,,,,,,,,,,,,,,,,,,,,,,,,,,,,,,,,,,,,,,,,,,,,,,,,,,,,,,,,,,,,,,,,sqlxrv,"['s', 'q', 'l', 'x', 'r', 'v']",0,"[1.2431269000080647, 1.8149525000044378, 2.337329200003296, 2.726398500002688, 3.823700100008864, 4.434633199998643, 4.819981799999368]",504.5942916000058,None,504.5942916000058,None,1,SQLXRV,504.5942916000058,None,Pilot3,001,2019_Nov_19_1106,test_final,3.1.5,60.18860701693385,
Practice,13,(3x8) - 19 ,5,,,,,,,,,,,,,,,,,,,,,,,,,,,,,5,0,5,0,0,0,0,0,0,0,0,12,,,,,,,,,,,,,,,,,,,,,,,,,,5,,,,,,,,,,,,,,,,,,,,,,,,,,,,,,,,,,,,,,,,,,,,1,,,,,,,,,,,,,,,,,,,,,,,,,,509.98851530000684,None,['5'],0,[1.4875012999982573],509.98851530000684,None,509.98851530000684,None,509.98851530000684,None,511.55349400000705,None,511.55349400000705,None,,,,,,,,,,,,,,,Pilot3,001,2019_Nov_19_1106,test_final,3.1.5,60.18860701693385,
,,,,,,,,,,,,,,,,,,,,,,,,,,,,,,,,5,0,5,0,0,0,0,0,,,,,,,,,,,,,,,,,,,,,,,,,,,,,,,,,,,,,,,,,,,,,,,,,,,,,,,,,,,,,,,,,,,,,,,,,,,,,,,,,,,,,,,,,,,,,,,,,,,,,,,,,,,,,,,,,,,512.8860459999996,None,,,,,,,,,,,,,Pilot3,001,2019_Nov_19_1106,test_final,3.1.5,60.18860701693385,
Practice,14,(6/3) + 4 ,6,,,,,,,,,,,,,,,,,,,,,,,,,,,,,5,0,5,0,1,0,1,0,0,0,0,13,,,,,,,,,,,,,,,,,,,,,,,,,,6,,,,,,,,,,,,,,,,,,,,,,,,,,,,,,,,,,,,,,,,,,,,1,,,,,,,,,,,,,,,,,,,,,,,,,,514.2017223000003,None,['6'],0,[1.9575025999947684],514.2017223000003,None,514.2017223000003,None,514.2017223000003,None,516.2479170000006,None,516.2479170000006,None,,,,,,,,,,,,,,,Pilot3,001,2019_Nov_19_1106,test_final,3.1.5,60.18860701693385,
,,,,,,,,,,,,,,,,,,,,,,,,,,,,,,,,5,0,5,0,1,0,1,0,,,,,,,,,,,,,,,,,,,,,,,,,,,,,,,,,,,,,,,,,,,,,,,,,,,,,,,,,,,,,,,,,,,,,,,,,,,,,,,,,,,,,,,,,,,,,,,,,,,,,,,,,,,,,,,,,,,517.5815938000014,None,,,,,,,,,,,,,Pilot3,001,2019_Nov_19_1106,test_final,3.1.5,60.18860701693385,
Practice,2,(1/1) - 1,0,,,,,,,,,,,,,,,,,,,,,,,,,,,,,5,0,5,0,2,0,2,0,0,0,0,1,,,,,,,,,,,,,,,,,,,,,,,,,,0,,,,,,,,,,,,,,,,,,,,,,,,,,,,,,,,,,,,,,,,,,,,1,,,,,,,,,,,,,,,,,,,,,,,,,,518.913363300002,None,['0'],0,[2.356794199993601],518.913363300002,None,518.913363300002,None,518.913363300002,None,521.358094700001,None,521.358094700001,None,,,,,,,,,,,,,,,Pilot3,001,2019_Nov_19_1106,test_final,3.1.5,60.18860701693385,
,,,,,,,,,,,,,,,,,,,,,,,,,,,,,,,,5,0,5,0,2,0,2,0,,,,,,,,,,,,,,,,,,,,,,,,,,,,,,,,,,,,,,,,,,,,,,,,,,,,,,,,,,,,,,,,,,,,,,,,,,,,,,,,,,,,,,,,,,,,,,,,,,,,,,,,,,,,,,,,,,,522.6932495000074,None,,,,,,,,,,,,,Pilot3,001,2019_Nov_19_1106,test_final,3.1.5,60.18860701693385,
Practice,8,(3/3) + 5,6,,,,,,,,,,,,,,,,,,,,,,,,,,,,,5,0,5,0,3,0,3,0,0,0,0,7,,,,,,,,,,,,,,,,,,,,,,,,,,6,,,,,,,,,,,,,,,,,,,,,,,,,,,,,,,,,,,,,,,,,,,,1,,,,,,,,,,,,,,,,,,,,,,,,,,524.0252369000082,None,['6'],0,[2.7112226000026567],524.0252369000082,None,524.0252369000082,None,524.0252369000082,None,526.8381231000094,None,526.8381231000094,None,,,,,,,,,,,,,,,Pilot3,001,2019_Nov_19_1106,test_final,3.1.5,60.18860701693385,
,,,,,,,,,,,,,,,,,,,,,,,,,,,,,,,,5,0,5,0,3,0,3,0,,,,,,,,,,,,,,,,,,,,,,,,,,,,,,,,,,,,,,,,,,,,,,,,,,,,,,,,,,,,,,,,,,,,,,,,,,,,,,,,,,,,,,,,,,,,,,,,,,,,,,,,,,,,,,,,,,,528.1878717000072,None,,,,,,,,,,,,,Pilot3,001,2019_Nov_19_1106,test_final,3.1.5,60.18860701693385,
Practice,7,(4x6) - 17,7,,,,,,,,,,,,,,,,,,,,,,,,,,,,,5,0,5,0,4,0,4,0,0,0,0,6,,,,,,,,,,,,,,,,,,,,,,,,,,7,,,,,,,,,,,,,,,,,,,,,,,,,,,,,,,,,,,,,,,,,,,,1,,,,,,,,,,,,,,,,,,,,,,,,,,529.5032807000098,None,['7'],0,[3.1246802999958163],529.5032807000098,None,529.5032807000098,None,529.5032807000098,None,532.7146700000012,None,532.7146700000012,None,,,,,,,,,,,,,,,Pilot3,001,2019_Nov_19_1106,test_final,3.1.5,60.18860701693385,
,,,,,,,,,,,,,,,,,,,,,,,,,,,,,,,,5,0,5,0,4,0,4,0,,,,,,,,,,,,,,,,,,,,,,,,,,,,,,,,,,,,,,,,,,,,,,,,,,,,,,,,,,,,,,,,,,,,,,,,,,,,,,,,,,,,,,,,,,,,,,,,,,,,,,,,,,,,,,,,,,,534.0654127000016,None,,,,,,,,,,,,,Pilot3,001,2019_Nov_19_1106,test_final,3.1.5,60.18860701693385,
Practice,10,(8/4) + 3,5,,,,,,,,,,,,,,,,,,,,,,,,,,,,,5,0,5,0,5,0,5,0,0,0,0,9,,,,,,,,,,,,,,,,,,,,,,,,,,5,,,,,,,,,,,,,,,,,,,,,,,,,,,,,,,,,,,,,,,,,,,,1,,,,,,,,,,,,,,,,,,,,,,,,,,535.3808558000019,None,['5'],0,[1.47000040000421],535.3808558000019,None,535.3808558000019,None,535.3808558000019,None,536.9428448000108,None,536.9428448000108,None,,,,,,,,,,,,,,,Pilot3,001,2019_Nov_19_1106,test_final,3.1.5,60.18860701693385,
,,,,,,,,,,,,,,,,,,,,,,,,,,,,,,,,5,0,5,0,5,0,5,0,,,,,,,,,,,,,,,,,,,,,,,,,,,,,,,,,,,,,,,,,,,,,,,,,,,,,,,,,,,,,,,,,,,,,,,,,,,,,,,,,,,,,,,,,,,,,,,,,,,,,,,,,,,,,,,,,,,538.2947674000025,None,,,,,,,,,,,,,Pilot3,001,2019_Nov_19_1106,test_final,3.1.5,60.18860701693385,
Practice,5,(3/3) + 2,3,,,,,,,,,,,,,,,,,,,,,,,,,,,,,5,0,5,0,6,0,6,0,0,0,0,4,,,,,,,,,,,,,,,,,,,,,,,,,,3,,,,,,,,,,,,,,,,,,,,,,,,,,,,,,,,,,,,,,,,,,,,1,,,,,,,,,,,,,,,,,,,,,,,,,,539.6101288000064,None,['3'],0,[3.7952181000000564],539.6101288000064,None,539.6101288000064,None,539.6101288000064,None,543.4975160000031,None,543.4975160000031,None,,,,,,,,,,,,,,,Pilot3,001,2019_Nov_19_1106,test_final,3.1.5,60.18860701693385,
,,,,,,,,,,,,,,,,,,,,,,,,,,,,,,,,5,0,5,0,6,0,6,0,,,,,,,,,,,,,,,,,,,,,,,,,,,,,,,,,,,,,,,,,,,,,,,,,,,,,,,,,,,,,,,,,,,,,,,,,,,,,,,,,,,,,,,,,,,,,,,,,,,,,,,,,,,,,,,,,,,544.854808700009,None,,,,,,,,,,,,,Pilot3,001,2019_Nov_19_1106,test_final,3.1.5,60.18860701693385,
,,,,,,,,,,,,,,,,,,,,,,,,,,,,,,,,5,0,5,0,,,,,,,,,,,,,,,,,,,,,,,,,,,,,,,,,,,,,,,,,,,,,,,,,,,,,,,,,,,,,,,,,,,,,,,,,,,,,,,,,,,,,,,,,,,,,,,,,,,,,,,,,,,,,,,,,,,,,,,,,qjrjhtx,"['q', 'j', 'r', 'j', 'h', 't', 'x']",0,"[1.6590365000010934, 1.946502299993881, 2.336628999997629, 2.9954735999926925, 4.015384199999971, 4.275806799996644, 4.853481400001328, 5.243568399993819]",546.1371786000091,None,546.1371786000091,None,0,QVRJHTX,546.1371786000091,None,Pilot3,001,2019_Nov_19_1106,test_final,3.1.5,60.18860701693385,
Practice,3,(7x2) - 5,9,,,,,,,,,,,,,,,,,,,,,,,,,,,,,6,0,6,0,0,0,0,0,0,0,0,2,,,,,,,,,,,,,,,,,,,,,,,,,,9,,,,,,,,,,,,,,,,,,,,,,,,,,,,,,,,,,,,,,,,,,,,1,,,,,,,,,,,,,,,,,,,,,,,,,,551.9645979000052,None,['9'],0,[1.7162682999914978],551.9645979000052,None,551.9645979000052,None,551.9645979000052,None,553.7607167000097,None,553.7607167000097,None,,,,,,,,,,,,,,,Pilot3,001,2019_Nov_19_1106,test_final,3.1.5,60.18860701693385,
,,,,,,,,,,,,,,,,,,,,,,,,,,,,,,,,6,0,6,0,0,0,0,0,,,,,,,,,,,,,,,,,,,,,,,,,,,,,,,,,,,,,,,,,,,,,,,,,,,,,,,,,,,,,,,,,,,,,,,,,,,,,,,,,,,,,,,,,,,,,,,,,,,,,,,,,,,,,,,,,,,555.1113189000025,None,,,,,,,,,,,,,Pilot3,001,2019_Nov_19_1106,test_final,3.1.5,60.18860701693385,
Practice,8,(3/3) + 5,6,,,,,,,,,,,,,,,,,,,,,,,,,,,,,6,0,6,0,1,0,1,0,0,0,0,7,,,,,,,,,,,,,,,,,,,,,,,,,,6,,,,,,,,,,,,,,,,,,,,,,,,,,,,,,,,,,,,,,,,,,,,1,,,,,,,,,,,,,,,,,,,,,,,,,,556.4268405000039,None,['6'],0,[1.643299699993804],556.4268405000039,None,556.4268405000039,None,556.4268405000039,None,558.1362882999965,None,558.1362882999965,None,,,,,,,,,,,,,,,Pilot3,001,2019_Nov_19_1106,test_final,3.1.5,60.18860701693385,
,,,,,,,,,,,,,,,,,,,,,,,,,,,,,,,,6,0,6,0,1,0,1,0,,,,,,,,,,,,,,,,,,,,,,,,,,,,,,,,,,,,,,,,,,,,,,,,,,,,,,,,,,,,,,,,,,,,,,,,,,,,,,,,,,,,,,,,,,,,,,,,,,,,,,,,,,,,,,,,,,,559.4899393000087,None,,,,,,,,,,,,,Pilot3,001,2019_Nov_19_1106,test_final,3.1.5,60.18860701693385,
Practice,15,(9/3) - 2,1,,,,,,,,,,,,,,,,,,,,,,,,,,,,,6,0,6,0,2,0,2,0,0,0,0,14,,,,,,,,,,,,,,,,,,,,,,,,,,1,,,,,,,,,,,,,,,,,,,,,,,,,,,,,,,,,,,,,,,,,,,,1,,,,,,,,,,,,,,,,,,,,,,,,,,560.8392362000013,None,['1'],0,[1.3336424000008265],560.8392362000013,None,560.8392362000013,None,560.8392362000013,None,562.2582803999976,None,562.2582803999976,None,,,,,,,,,,,,,,,Pilot3,001,2019_Nov_19_1106,test_final,3.1.5,60.18860701693385,
,,,,,,,,,,,,,,,,,,,,,,,,,,,,,,,,6,0,6,0,2,0,2,0,,,,,,,,,,,,,,,,,,,,,,,,,,,,,,,,,,,,,,,,,,,,,,,,,,,,,,,,,,,,,,,,,,,,,,,,,,,,,,,,,,,,,,,,,,,,,,,,,,,,,,,,,,,,,,,,,,,563.6032268999988,None,,,,,,,,,,,,,Pilot3,001,2019_Nov_19_1106,test_final,3.1.5,60.18860701693385,
Practice,3,(7x2) - 5,9,,,,,,,,,,,,,,,,,,,,,,,,,,,,,6,0,6,0,3,0,3,0,0,0,0,2,,,,,,,,,,,,,,,,,,,,,,,,,,9,,,,,,,,,,,,,,,,,,,,,,,,,,,,,,,,,,,,,,,,,,,,1,,,,,,,,,,,,,,,,,,,,,,,,,,564.9188044000039,None,['9'],0,[1.6120839999930467],564.9188044000039,None,564.9188044000039,None,564.9188044000039,None,566.6101231000066,None,566.6101231000066,None,,,,,,,,,,,,,,,Pilot3,001,2019_Nov_19_1106,test_final,3.1.5,60.18860701693385,
,,,,,,,,,,,,,,,,,,,,,,,,,,,,,,,,6,0,6,0,3,0,3,0,,,,,,,,,,,,,,,,,,,,,,,,,,,,,,,,,,,,,,,,,,,,,,,,,,,,,,,,,,,,,,,,,,,,,,,,,,,,,,,,,,,,,,,,,,,,,,,,,,,,,,,,,,,,,,,,,,,567.9654745000007,None,,,,,,,,,,,,,Pilot3,001,2019_Nov_19_1106,test_final,3.1.5,60.18860701693385,
Practice,2,(1/1) - 1,0,,,,,,,,,,,,,,,,,,,,,,,,,,,,,6,0,6,0,4,0,4,0,0,0,0,1,,,,,,,,,,,,,,,,,,,,,,,,,,0,,,,,,,,,,,,,,,,,,,,,,,,,,,,,,,,,,,,,,,,,,,,1,,,,,,,,,,,,,,,,,,,,,,,,,,569.2809422999999,None,['0'],0,[1.5974942000029841],569.2809422999999,None,569.2809422999999,None,569.2809422999999,None,570.9615880000056,None,570.9615880000056,None,,,,,,,,,,,,,,,Pilot3,001,2019_Nov_19_1106,test_final,3.1.5,60.18860701693385,
,,,,,,,,,,,,,,,,,,,,,,,,,,,,,,,,6,0,6,0,4,0,4,0,,,,,,,,,,,,,,,,,,,,,,,,,,,,,,,,,,,,,,,,,,,,,,,,,,,,,,,,,,,,,,,,,,,,,,,,,,,,,,,,,,,,,,,,,,,,,,,,,,,,,,,,,,,,,,,,,,,572.3114092000033,None,,,,,,,,,,,,,Pilot3,001,2019_Nov_19_1106,test_final,3.1.5,60.18860701693385,
Practice,9,(4/2) + 5,7,,,,,,,,,,,,,,,,,,,,,,,,,,,,,6,0,6,0,5,0,5,0,0,0,0,8,,,,,,,,,,,,,,,,,,,,,,,,,,7,,,,,,,,,,,,,,,,,,,,,,,,,,,,,,,,,,,,,,,,,,,,1,,,,,,,,,,,,,,,,,,,,,,,,,,573.6266592000029,None,['7'],0,[4.115132899998571],573.6266592000029,None,573.6266592000029,None,573.6266592000029,None,577.8207785999984,None,577.8207785999984,None,,,,,,,,,,,,,,,Pilot3,001,2019_Nov_19_1106,test_final,3.1.5,60.18860701693385,
,,,,,,,,,,,,,,,,,,,,,,,,,,,,,,,,6,0,6,0,5,0,5,0,,,,,,,,,,,,,,,,,,,,,,,,,,,,,,,,,,,,,,,,,,,,,,,,,,,,,,,,,,,,,,,,,,,,,,,,,,,,,,,,,,,,,,,,,,,,,,,,,,,,,,,,,,,,,,,,,,,579.1715330000006,None,,,,,,,,,,,,,Pilot3,001,2019_Nov_19_1106,test_final,3.1.5,60.18860701693385,
Practice,10,(8/4) + 3,5,,,,,,,,,,,,,,,,,,,,,,,,,,,,,6,0,6,0,6,0,6,0,0,0,0,9,,,,,,,,,,,,,,,,,,,,,,,,,,5,,,,,,,,,,,,,,,,,,,,,,,,,,,,,,,,,,,,,,,,,,,,1,,,,,,,,,,,,,,,,,,,,,,,,,,580.4863117000059,None,['5'],0,[3.0173416000034194],580.4863117000059,None,580.4863117000059,None,580.4863117000059,None,583.5922964000056,None,583.5922964000056,None,,,,,,,,,,,,,,,Pilot3,001,2019_Nov_19_1106,test_final,3.1.5,60.18860701693385,
,,,,,,,,,,,,,,,,,,,,,,,,,,,,,,,,6,0,6,0,6,0,6,0,,,,,,,,,,,,,,,,,,,,,,,,,,,,,,,,,,,,,,,,,,,,,,,,,,,,,,,,,,,,,,,,,,,,,,,,,,,,,,,,,,,,,,,,,,,,,,,,,,,,,,,,,,,,,,,,,,,584.948941900002,None,,,,,,,,,,,,,Pilot3,001,2019_Nov_19_1106,test_final,3.1.5,60.18860701693385,
,,,,,,,,,,,,,,,,,,,,,,,,,,,,,,,,6,0,6,0,,,,,,,,,,,,,,,,,,,,,,,,,,,,,,,,,,,,,,,,,,,,,,,,,,,,,,,,,,,,,,,,,,,,,,,,,,,,,,,,,,,,,,,,,,,,,,,,,,,,,,,,,,,,,,,,,,,,,,,,,rxnzkqt,"['r', 'x', 'n', 'z', 'k', 'q', 't']",0,"[1.1167274000035832, 1.407614099996863, 1.9843074999953387, 2.2539764999964973, 2.695818699998199, 2.819256000002497, 3.292344499990577, 5.307162999990396]",586.231412699999,None,586.231412699999,None,1,RXNZKQT,586.231412699999,None,Pilot3,001,2019_Nov_19_1106,test_final,3.1.5,60.18860701693385,
Practice,12,(8/2) + 4,8,,,,,,,,,,,,,,,,,,,,,,,,,,,,,7,0,7,0,0,0,0,0,0,0,0,11,,,,,,,,,,,,,,,,,,,,,,,,,,6,,,,,,,,,,,,,,,,,,,,,,,,,,,,,,,,,,,,,,,,,,,,0,,,,,,,,,,,,,,,,,,,,,,,,,,592.1246811000019,None,['6'],0,[3.459238199997344],592.1246811000019,None,592.1246811000019,None,592.1246811000019,None,595.6848831000098,None,595.6848831000098,None,,,,,,,,,,,,,,,Pilot3,001,2019_Nov_19_1106,test_final,3.1.5,60.18860701693385,
Practice,9,(4/2) + 5,7,,,,,,,,,,,,,,,,,,,,,,,,,,,,,7,0,7,0,0,0,0,0,0,1,1,8,,,,,,,,,,,,,,,,,,,,,,,,,,7,,,,,,,,,,,,,,,,,,,,,,,,,,,,,,,,,,,,,,,,,,,,1,,,,,,,,,,,,,,,,,,,,,,,,,,597.0206444000069,None,['7'],0,[1.680344199994579],597.0206444000069,None,597.0206444000069,None,597.0206444000069,None,598.7667413000017,None,598.7667413000017,None,,,,,,,,,,,,,,,Pilot3,001,2019_Nov_19_1106,test_final,3.1.5,60.18860701693385,
,,,,,,,,,,,,,,,,,,,,,,,,,,,,,,,,7,0,7,0,0,0,0,0,,,,,,,,,,,,,,,,,,,,,,,,,,,,,,,,,,,,,,,,,,,,,,,,,,,,,,,,,,,,,,,,,,,,,,,,,,,,,,,,,,,,,,,,,,,,,,,,,,,,,,,,,,,,,,,,,,,600.0843825000047,None,,,,,,,,,,,,,Pilot3,001,2019_Nov_19_1106,test_final,3.1.5,60.18860701693385,
Practice,9,(4/2) + 5,7,,,,,,,,,,,,,,,,,,,,,,,,,,,,,7,0,7,0,1,0,1,0,0,0,0,8,,,,,,,,,,,,,,,,,,,,,,,,,,7,,,,,,,,,,,,,,,,,,,,,,,,,,,,,,,,,,,,,,,,,,,,1,,,,,,,,,,,,,,,,,,,,,,,,,,601.4161404000042,None,['7'],0,[2.793390899998485],601.4161404000042,None,601.4161404000042,None,601.4161404000042,None,604.2965148000076,None,604.2965148000076,None,,,,,,,,,,,,,,,Pilot3,001,2019_Nov_19_1106,test_final,3.1.5,60.18860701693385,
,,,,,,,,,,,,,,,,,,,,,,,,,,,,,,,,7,0,7,0,1,0,1,0,,,,,,,,,,,,,,,,,,,,,,,,,,,,,,,,,,,,,,,,,,,,,,,,,,,,,,,,,,,,,,,,,,,,,,,,,,,,,,,,,,,,,,,,,,,,,,,,,,,,,,,,,,,,,,,,,,,605.6453977000056,None,,,,,,,,,,,,,Pilot3,001,2019_Nov_19_1106,test_final,3.1.5,60.18860701693385,
Practice,12,(8/2) + 4,8,,,,,,,,,,,,,,,,,,,,,,,,,,,,,7,0,7,0,2,0,2,0,0,0,0,11,,,,,,,,,,,,,,,,,,,,,,,,,,8,,,,,,,,,,,,,,,,,,,,,,,,,,,,,,,,,,,,,,,,,,,,1,,,,,,,,,,,,,,,,,,,,,,,,,,606.9610620000021,None,['8'],0,[1.6218030000018189],606.9610620000021,None,606.9610620000021,None,606.9610620000021,None,608.682709700006,None,608.682709700006,None,,,,,,,,,,,,,,,Pilot3,001,2019_Nov_19_1106,test_final,3.1.5,60.18860701693385,
,,,,,,,,,,,,,,,,,,,,,,,,,,,,,,,,7,0,7,0,2,0,2,0,,,,,,,,,,,,,,,,,,,,,,,,,,,,,,,,,,,,,,,,,,,,,,,,,,,,,,,,,,,,,,,,,,,,,,,,,,,,,,,,,,,,,,,,,,,,,,,,,,,,,,,,,,,,,,,,,,,610.0244685000071,None,,,,,,,,,,,,,Pilot3,001,2019_Nov_19_1106,test_final,3.1.5,60.18860701693385,
Practice,6,(2x6) - 8,4,,,,,,,,,,,,,,,,,,,,,,,,,,,,,7,0,7,0,3,0,3,0,0,0,0,5,,,,,,,,,,,,,,,,,,,,,,,,,,4,,,,,,,,,,,,,,,,,,,,,,,,,,,,,,,,,,,,,,,,,,,,1,,,,,,,,,,,,,,,,,,,,,,,,,,611.339802100003,None,['4'],0,[1.6872203999955673],611.339802100003,None,611.339802100003,None,611.339802100003,None,613.1150993000047,None,613.1150993000047,None,,,,,,,,,,,,,,,Pilot3,001,2019_Nov_19_1106,test_final,3.1.5,60.18860701693385,
,,,,,,,,,,,,,,,,,,,,,,,,,,,,,,,,7,0,7,0,3,0,3,0,,,,,,,,,,,,,,,,,,,,,,,,,,,,,,,,,,,,,,,,,,,,,,,,,,,,,,,,,,,,,,,,,,,,,,,,,,,,,,,,,,,,,,,,,,,,,,,,,,,,,,,,,,,,,,,,,,,614.4701082000101,None,,,,,,,,,,,,,Pilot3,001,2019_Nov_19_1106,test_final,3.1.5,60.18860701693385,
Practice,13,(3x8) - 19 ,5,,,,,,,,,,,,,,,,,,,,,,,,,,,,,7,0,7,0,4,0,4,0,0,0,0,12,,,,,,,,,,,,,,,,,,,,,,,,,,5,,,,,,,,,,,,,,,,,,,,,,,,,,,,,,,,,,,,,,,,,,,,1,,,,,,,,,,,,,,,,,,,,,,,,,,615.7854148000042,None,['5'],0,[1.2664572999929078],615.7854148000042,None,615.7854148000042,None,615.7854148000042,None,617.1221280000027,None,617.1221280000027,None,,,,,,,,,,,,,,,Pilot3,001,2019_Nov_19_1106,test_final,3.1.5,60.18860701693385,
,,,,,,,,,,,,,,,,,,,,,,,,,,,,,,,,7,0,7,0,4,0,4,0,,,,,,,,,,,,,,,,,,,,,,,,,,,,,,,,,,,,,,,,,,,,,,,,,,,,,,,,,,,,,,,,,,,,,,,,,,,,,,,,,,,,,,,,,,,,,,,,,,,,,,,,,,,,,,,,,,,618.4660900000017,None,,,,,,,,,,,,,Pilot3,001,2019_Nov_19_1106,test_final,3.1.5,60.18860701693385,
Practice,6,(2x6) - 8,4,,,,,,,,,,,,,,,,,,,,,,,,,,,,,7,0,7,0,5,0,5,0,0,0,0,5,,,,,,,,,,,,,,,,,,,,,,,,,,4,,,,,,,,,,,,,,,,,,,,,,,,,,,,,,,,,,,,,,,,,,,,1,,,,,,,,,,,,,,,,,,,,,,,,,,619.7649263000058,None,['4'],0,[1.2581921000091825],619.7649263000058,None,619.7649263000058,None,619.7649263000058,None,621.1202925999969,None,621.1202925999969,None,,,,,,,,,,,,,,,Pilot3,001,2019_Nov_19_1106,test_final,3.1.5,60.18860701693385,
,,,,,,,,,,,,,,,,,,,,,,,,,,,,,,,,7,0,7,0,5,0,5,0,,,,,,,,,,,,,,,,,,,,,,,,,,,,,,,,,,,,,,,,,,,,,,,,,,,,,,,,,,,,,,,,,,,,,,,,,,,,,,,,,,,,,,,,,,,,,,,,,,,,,,,,,,,,,,,,,,,622.4621920000063,None,,,,,,,,,,,,,Pilot3,001,2019_Nov_19_1106,test_final,3.1.5,60.18860701693385,
Practice,13,(3x8) - 19 ,5,,,,,,,,,,,,,,,,,,,,,,,,,,,,,7,0,7,0,6,0,6,0,0,0,0,12,,,,,,,,,,,,,,,,,,,,,,,,,,5,,,,,,,,,,,,,,,,,,,,,,,,,,,,,,,,,,,,,,,,,,,,1,,,,,,,,,,,,,,,,,,,,,,,,,,623.7776215000049,None,['5'],0,[1.4656817000068258],623.7776215000049,None,623.7776215000049,None,623.7776215000049,None,625.3063576999994,None,625.3063576999994,None,,,,,,,,,,,,,,,Pilot3,001,2019_Nov_19_1106,test_final,3.1.5,60.18860701693385,
,,,,,,,,,,,,,,,,,,,,,,,,,,,,,,,,7,0,7,0,6,0,6,0,,,,,,,,,,,,,,,,,,,,,,,,,,,,,,,,,,,,,,,,,,,,,,,,,,,,,,,,,,,,,,,,,,,,,,,,,,,,,,,,,,,,,,,,,,,,,,,,,,,,,,,,,,,,,,,,,,,626.6415293000027,None,,,,,,,,,,,,,Pilot3,001,2019_Nov_19_1106,test_final,3.1.5,60.18860701693385,
Practice,15,(9/3) - 2,1,,,,,,,,,,,,,,,,,,,,,,,,,,,,,7,0,7,0,7,0,7,0,0,0,0,14,,,,,,,,,,,,,,,,,,,,,,,,,,1,,,,,,,,,,,,,,,,,,,,,,,,,,,,,,,,,,,,,,,,,,,,1,,,,,,,,,,,,,,,,,,,,,,,,,,627.9734470999974,None,['1'],0,[4.221107799996389],627.9734470999974,None,627.9734470999974,None,627.9734470999974,None,632.2903759000037,None,632.2903759000037,None,,,,,,,,,,,,,,,Pilot3,001,2019_Nov_19_1106,test_final,3.1.5,60.18860701693385,
,,,,,,,,,,,,,,,,,,,,,,,,,,,,,,,,7,0,7,0,7,0,7,0,,,,,,,,,,,,,,,,,,,,,,,,,,,,,,,,,,,,,,,,,,,,,,,,,,,,,,,,,,,,,,,,,,,,,,,,,,,,,,,,,,,,,,,,,,,,,,,,,,,,,,,,,,,,,,,,,,,633.6345909000083,None,,,,,,,,,,,,,Pilot3,001,2019_Nov_19_1106,test_final,3.1.5,60.18860701693385,
,,,,,,,,,,,,,,,,,,,,,,,,,,,,,,,,7,0,7,0,,,,,,,,,,,,,,,,,,,,,,,,,,,,,,,,,,,,,,,,,,,,,,,,,,,,,,,,,,,,,,,,,,,,,,,,,,,,,,,,,,,,,,,,,,,,,,,,,,,,,,,,,,,,,,,,,,,,,,,,,vnrjxlz,"['v', 'n', 'r', 'j', 'x', 'l', 'z']",0,"[1.2181999000022188, 1.7418825999920955, 2.102249000003212, 2.4485897999984445, 2.759958499998902, 3.1133702999941306, 3.412216400000034, 4.553329300004407]",634.9169315000036,None,634.9169315000036,None,0,VNRJZLXK,634.9169315000036,None,Pilot3,001,2019_Nov_19_1106,test_final,3.1.5,60.18860701693385,
Practice,1,(1x2) + 1,3,,,,,,,,,,,,,,,,,,,,,,,,,,,,,8,0,8,0,0,0,0,0,0,0,0,0,,,,,,,,,,,,,,,,,,,,,,,,,,3,,,,,,,,,,,,,,,,,,,,,,,,,,,,,,,,,,,,,,,,,,,,1,,,,,,,,,,,,,,,,,,,,,,,,,,640.0617829999974,None,['3'],0,[1.6858341000042856],640.0617829999974,None,640.0617829999974,None,640.0617829999974,None,641.8391254000016,None,641.8391254000016,None,,,,,,,,,,,,,,,Pilot3,001,2019_Nov_19_1106,test_final,3.1.5,60.18860701693385,
,,,,,,,,,,,,,,,,,,,,,,,,,,,,,,,,8,0,8,0,0,0,0,0,,,,,,,,,,,,,,,,,,,,,,,,,,,,,,,,,,,,,,,,,,,,,,,,,,,,,,,,,,,,,,,,,,,,,,,,,,,,,,,,,,,,,,,,,,,,,,,,,,,,,,,,,,,,,,,,,,,643.1919188000029,None,,,,,,,,,,,,,Pilot3,001,2019_Nov_19_1106,test_final,3.1.5,60.18860701693385,
Practice,6,(2x6) - 8,4,,,,,,,,,,,,,,,,,,,,,,,,,,,,,8,0,8,0,1,0,1,0,0,0,0,5,,,,,,,,,,,,,,,,,,,,,,,,,,4,,,,,,,,,,,,,,,,,,,,,,,,,,,,,,,,,,,,,,,,,,,,1,,,,,,,,,,,,,,,,,,,,,,,,,,644.507356800008,None,['4'],0,[1.2156344999966677],644.507356800008,None,644.507356800008,None,644.507356800008,None,645.7927065999975,None,645.7927065999975,None,,,,,,,,,,,,,,,Pilot3,001,2019_Nov_19_1106,test_final,3.1.5,60.18860701693385,
,,,,,,,,,,,,,,,,,,,,,,,,,,,,,,,,8,0,8,0,1,0,1,0,,,,,,,,,,,,,,,,,,,,,,,,,,,,,,,,,,,,,,,,,,,,,,,,,,,,,,,,,,,,,,,,,,,,,,,,,,,,,,,,,,,,,,,,,,,,,,,,,,,,,,,,,,,,,,,,,,,647.1381139000005,None,,,,,,,,,,,,,Pilot3,001,2019_Nov_19_1106,test_final,3.1.5,60.18860701693385,
Practice,15,(9/3) - 2,1,,,,,,,,,,,,,,,,,,,,,,,,,,,,,8,0,8,0,2,0,2,0,0,0,0,14,,,,,,,,,,,,,,,,,,,,,,,,,,1,,,,,,,,,,,,,,,,,,,,,,,,,,,,,,,,,,,,,,,,,,,,1,,,,,,,,,,,,,,,,,,,,,,,,,,648.4537758000079,None,['1'],0,[1.001548800006276],648.4537758000079,None,648.4537758000079,None,648.4537758000079,None,649.5518497000012,None,649.5518497000012,None,,,,,,,,,,,,,,,Pilot3,001,2019_Nov_19_1106,test_final,3.1.5,60.18860701693385,
,,,,,,,,,,,,,,,,,,,,,,,,,,,,,,,,8,0,8,0,2,0,2,0,,,,,,,,,,,,,,,,,,,,,,,,,,,,,,,,,,,,,,,,,,,,,,,,,,,,,,,,,,,,,,,,,,,,,,,,,,,,,,,,,,,,,,,,,,,,,,,,,,,,,,,,,,,,,,,,,,,650.8844291999994,None,,,,,,,,,,,,,Pilot3,001,2019_Nov_19_1106,test_final,3.1.5,60.18860701693385,
Practice,11,(5x3) - 7,8,,,,,,,,,,,,,,,,,,,,,,,,,,,,,8,0,8,0,3,0,3,0,0,0,0,10,,,,,,,,,,,,,,,,,,,,,,,,,,6,,,,,,,,,,,,,,,,,,,,,,,,,,,,,,,,,,,,,,,,,,,,0,,,,,,,,,,,,,,,,,,,,,,,,,,652.2164275999967,None,['6'],0,[1.855993999997736],652.2164275999967,None,652.2164275999967,None,652.2164275999967,None,654.1761014000076,None,654.1761014000076,None,,,,,,,,,,,,,,,Pilot3,001,2019_Nov_19_1106,test_final,3.1.5,60.18860701693385,
Practice,15,(9/3) - 2,1,,,,,,,,,,,,,,,,,,,,,,,,,,,,,8,0,8,0,3,0,3,0,0,1,1,14,,,,,,,,,,,,,,,,,,,,,,,,,,1,,,,,,,,,,,,,,,,,,,,,,,,,,,,,,,,,,,,,,,,,,,,1,,,,,,,,,,,,,,,,,,,,,,,,,,655.5127460000076,None,['1'],0,[1.4290770999941742],655.5127460000076,None,655.5127460000076,None,655.5127460000076,None,657.0096983999974,None,657.0096983999974,None,,,,,,,,,,,,,,,Pilot3,001,2019_Nov_19_1106,test_final,3.1.5,60.18860701693385,
,,,,,,,,,,,,,,,,,,,,,,,,,,,,,,,,8,0,8,0,3,0,3,0,,,,,,,,,,,,,,,,,,,,,,,,,,,,,,,,,,,,,,,,,,,,,,,,,,,,,,,,,,,,,,,,,,,,,,,,,,,,,,,,,,,,,,,,,,,,,,,,,,,,,,,,,,,,,,,,,,,658.3270507999987,None,,,,,,,,,,,,,Pilot3,001,2019_Nov_19_1106,test_final,3.1.5,60.18860701693385,
Practice,6,(2x6) - 8,4,,,,,,,,,,,,,,,,,,,,,,,,,,,,,8,0,8,0,4,0,4,0,0,0,0,5,,,,,,,,,,,,,,,,,,,,,,,,,,4,,,,,,,,,,,,,,,,,,,,,,,,,,,,,,,,,,,,,,,,,,,,1,,,,,,,,,,,,,,,,,,,,,,,,,,659.6590921000025,None,['4'],0,[1.1630179000057979],659.6590921000025,None,659.6590921000025,None,659.6590921000025,None,660.9152564000105,None,660.9152564000105,None,,,,,,,,,,,,,,,Pilot3,001,2019_Nov_19_1106,test_final,3.1.5,60.18860701693385,
,,,,,,,,,,,,,,,,,,,,,,,,,,,,,,,,8,0,8,0,4,0,4,0,,,,,,,,,,,,,,,,,,,,,,,,,,,,,,,,,,,,,,,,,,,,,,,,,,,,,,,,,,,,,,,,,,,,,,,,,,,,,,,,,,,,,,,,,,,,,,,,,,,,,,,,,,,,,,,,,,,662.256558699999,None,,,,,,,,,,,,,Pilot3,001,2019_Nov_19_1106,test_final,3.1.5,60.18860701693385,
Practice,8,(3/3) + 5,6,,,,,,,,,,,,,,,,,,,,,,,,,,,,,8,0,8,0,5,0,5,0,0,0,0,7,,,,,,,,,,,,,,,,,,,,,,,,,,6,,,,,,,,,,,,,,,,,,,,,,,,,,,,,,,,,,,,,,,,,,,,1,,,,,,,,,,,,,,,,,,,,,,,,,,663.555437300005,None,['6'],0,[2.1806478000071365],663.555437300005,None,663.555437300005,None,663.555437300005,None,665.8252620999992,None,665.8252620999992,None,,,,,,,,,,,,,,,Pilot3,001,2019_Nov_19_1106,test_final,3.1.5,60.18860701693385,
,,,,,,,,,,,,,,,,,,,,,,,,,,,,,,,,8,0,8,0,5,0,5,0,,,,,,,,,,,,,,,,,,,,,,,,,,,,,,,,,,,,,,,,,,,,,,,,,,,,,,,,,,,,,,,,,,,,,,,,,,,,,,,,,,,,,,,,,,,,,,,,,,,,,,,,,,,,,,,,,,,667.1517773000087,None,,,,,,,,,,,,,Pilot3,001,2019_Nov_19_1106,test_final,3.1.5,60.18860701693385,
Practice,1,(1x2) + 1,3,,,,,,,,,,,,,,,,,,,,,,,,,,,,,8,0,8,0,6,0,6,0,0,0,0,0,,,,,,,,,,,,,,,,,,,,,,,,,,3,,,,,,,,,,,,,,,,,,,,,,,,,,,,,,,,,,,,,,,,,,,,1,,,,,,,,,,,,,,,,,,,,,,,,,,668.4839634000091,None,['3'],0,[2.657703200005926],668.4839634000091,None,668.4839634000091,None,668.4839634000091,None,671.2377667999972,None,671.2377667999972,None,,,,,,,,,,,,,,,Pilot3,001,2019_Nov_19_1106,test_final,3.1.5,60.18860701693385,
,,,,,,,,,,,,,,,,,,,,,,,,,,,,,,,,8,0,8,0,6,0,6,0,,,,,,,,,,,,,,,,,,,,,,,,,,,,,,,,,,,,,,,,,,,,,,,,,,,,,,,,,,,,,,,,,,,,,,,,,,,,,,,,,,,,,,,,,,,,,,,,,,,,,,,,,,,,,,,,,,,672.5632203999994,None,,,,,,,,,,,,,Pilot3,001,2019_Nov_19_1106,test_final,3.1.5,60.18860701693385,
Practice,2,(1/1) - 1,0,,,,,,,,,,,,,,,,,,,,,,,,,,,,,8,0,8,0,7,0,7,0,0,0,0,1,,,,,,,,,,,,,,,,,,,,,,,,,,0,,,,,,,,,,,,,,,,,,,,,,,,,,,,,,,,,,,,,,,,,,,,1,,,,,,,,,,,,,,,,,,,,,,,,,,673.8953726000036,None,['0'],0,[2.2737923999957275],673.8953726000036,None,673.8953726000036,None,673.8953726000036,None,676.2654282000003,None,676.2654282000003,None,,,,,,,,,,,,,,,Pilot3,001,2019_Nov_19_1106,test_final,3.1.5,60.18860701693385,
,,,,,,,,,,,,,,,,,,,,,,,,,,,,,,,,8,0,8,0,7,0,7,0,,,,,,,,,,,,,,,,,,,,,,,,,,,,,,,,,,,,,,,,,,,,,,,,,,,,,,,,,,,,,,,,,,,,,,,,,,,,,,,,,,,,,,,,,,,,,,,,,,,,,,,,,,,,,,,,,,,677.6081697000045,None,,,,,,,,,,,,,Pilot3,001,2019_Nov_19_1106,test_final,3.1.5,60.18860701693385,
,,,,,,,,,,,,,,,,,,,,,,,,,,,,,,,,8,0,8,0,,,,,,,,,,,,,,,,,,,,,,,,,,,,,,,,,,,,,,,,,,,,,,,,,,,,,,,,,,,,,,,,,,,,,,,,,,,,,,,,,,,,,,,,,,,,,,,,,,,,,,,,,,,,,,,,,,,,,,,,,atrshkl,"['a', 't', 'r', 's', 'h', 'k', 'l']",0,"[1.2138003000000026, 1.8469212999916635, 2.1720452000008663, 2.4193627999920864, 2.8109173999982886, 3.2045133999927202, 3.4651233999902615, 3.8020954999956302]",678.8904120000079,None,678.8904120000079,None,0,QTRSHKLZ,678.8904120000079,None,Pilot3,001,2019_Nov_19_1106,test_final,3.1.5,60.18860701693385,
