Task,Trial,Problem,Operation_answer,next_level.thisRepN,next_level.thisTrialN,next_level.thisN,next_level.thisIndex,next_letter.thisRepN,next_letter.thisTrialN,next_letter.thisN,next_letter.thisIndex,repeat_practice.thisRepN,repeat_practice.thisTrialN,repeat_practice.thisN,repeat_practice.thisIndex,trials.thisRepN,trials.thisTrialN,trials.thisN,trials.thisIndex,span_recall_prac.thisRepN,span_recall_prac.thisTrialN,span_recall_prac.thisN,span_recall_prac.thisIndex,span_size_prac.thisRepN,span_size_prac.thisTrialN,span_size_prac.thisN,span_size_prac.thisIndex,repeat_if_wrong_prac.thisRepN,repeat_if_wrong_prac.thisTrialN,repeat_if_wrong_prac.thisN,repeat_if_wrong_prac.thisIndex,span_recall.thisRepN,span_recall.thisTrialN,span_recall.thisN,span_recall.thisIndex,span_size.thisRepN,span_size.thisTrialN,span_size.thisN,span_size.thisIndex,repeat_if_wrong.thisRepN,repeat_if_wrong.thisTrialN,repeat_if_wrong.thisN,repeat_if_wrong.thisIndex,instructions_2.started,instructions_2.stopped,key_resp_4.keys,key_resp_4.rt,key_resp_4.started,key_resp_4.stopped,text_2.started,text_2.stopped,simple_recall,key_resp_5.keys,key_resp_5.rt,key_resp_5.started,key_resp_5.stopped,text_feedback.started,text_feedback.stopped,simple_recall_corr,simple_recall_corrkeys,instructions_3.started,instructions_3.stopped,instructions.started,instructions.stopped,key_resp_2.keys,key_resp_2.rt,key_resp_2.started,key_resp_2.stopped,digit_answer,operation.started,operation.stopped,key_resp.keys,key_resp.corr,key_resp.rt,key_resp.started,key_resp.stopped,operation_feedback.started,operation_feedback.stopped,instructions_8.started,instructions_8.stopped,feedback_msg.started,feedback_msg.stopped,processing_score,feedback_msg_2.started,feedback_msg_2.stopped,key_resp_3.keys,key_resp_3.rt,key_resp_3.started,key_resp_3.stopped,instructions_4.started,instructions_4.stopped,key_resp_6.keys,key_resp_6.rt,key_resp_6.started,key_resp_6.stopped,operation_3.started,operation_3.stopped,key_resp_11.keys,key_resp_11.corr,key_resp_11.rt,key_resp_11.started,key_resp_11.stopped,operation_feedback_2.started,operation_feedback_2.stopped,instructions_9.started,instructions_9.stopped,operation_correct,feedback_msg_4.started,feedback_msg_4.stopped,operation_4.started,operation_4.stopped,text_3.started,text_3.stopped,complex_recall_prac,key_resp_9.keys,key_resp_9.corr,key_resp_9.rt,key_resp_9.started,key_resp_9.stopped,text_feedback_3.started,text_feedback_3.stopped,instructions_6.started,instructions_6.stopped,complex_prac_corr,feedback_msg_3.started,feedback_msg_3.stopped,instructions_7.started,instructions_7.stopped,key_resp_10.keys,key_resp_10.rt,key_resp_10.started,key_resp_10.stopped,operation_2.started,operation_2.stopped,key_resp_7.keys,key_resp_7.corr,key_resp_7.rt,key_resp_7.started,key_resp_7.stopped,operation_feedback_3.started,operation_feedback_3.stopped,instructions_10.started,instructions_10.stopped,feedback_msg_5.started,feedback_msg_5.stopped,operation_5.started,operation_5.stopped,text.started,text.stopped,complex_recall,key_resp_8.keys,key_resp_8.corr,key_resp_8.rt,key_resp_8.started,key_resp_8.stopped,text_feedback_2.started,text_feedback_2.stopped,complex_recall_corr,complex_recall_corrkeys,instructions_5.started,instructions_5.stopped,participant,session,date,expName,psychopyVersion,frameRate
,,,,,,,,,,,,,,,,,,,,,,,,,,,,,,,,,,,,,,,,,,,,11.8551845,None,space,1.2105465,11.8551845,None,,,,,,,,,,,,,,,,,,,,,,,,,,,,,,,,,,,,,,,,,,,,,,,,,,,,,,,,,,,,,,,,,,,,,,,,,,,,,,,,,,,,,,,,,,,,,,,,,,,,,,,,,,,,,,,,,pilot_3,1,2019_Nov_06_1555,test_final,3.1.5,60.20103532
,,,,0,0,0,0,0,0,0,0,,,,,,,,,,,,,,,,,,,,,,,,,,,,,,,,,,,,,,,13.6160383,None,,,,,,,,,,,,,,,,,,,,,,,,,,,,,,,,,,,,,,,,,,,,,,,,,,,,,,,,,,,,,,,,,,,,,,,,,,,,,,,,,,,,,,,,,,,,,,,,,,,,,,,,,,,,,,,pilot_3,1,2019_Nov_06_1555,test_final,3.1.5,60.20103532
,,,,0,0,0,0,1,0,1,0,,,,,,,,,,,,,,,,,,,,,,,,,,,,,,,,,,,,,,,14.9146663,None,,,,,,,,,,,,,,,,,,,,,,,,,,,,,,,,,,,,,,,,,,,,,,,,,,,,,,,,,,,,,,,,,,,,,,,,,,,,,,,,,,,,,,,,,,,,,,,,,,,,,,,,,,,,,,,pilot_3,1,2019_Nov_06_1555,test_final,3.1.5,60.20103532
,,,,1,0,1,0,0,0,0,0,,,,,,,,,,,,,,,,,,,,,,,,,,,,,,,,,,,,,,,17.8117309,None,jx,"['j', 'x']","[0.6200848000007682, 0.7983272000565194, 1.0397103000432253]",16.2134094,None,16.2134094,None,1,JX,16.2134094,None,,,,,,,,,,,,,,,,,,,,,,,,,,,,,,,,,,,,,,,,,,,,,,,,,,,,,,,,,,,,,,,,,,,,,,,,,,,,,,,,,,,,,,,,,,,,,,,,,,,,pilot_3,1,2019_Nov_06_1555,test_final,3.1.5,60.20103532
,,,,1,0,1,0,1,0,1,0,,,,,,,,,,,,,,,,,,,,,,,,,,,,,,,,,,,,,,,19.1108217,18.6009659,,,,,,,,,,,,,,,,,,,,,,,,,,,,,,,,,,,,,,,,,,,,,,,,,,,,,,,,,,,,,,,,,,,,,,,,,,,,,,,,,,,,,,,,,,,,,,,,,,,,,,,,,,,,,,,pilot_3,1,2019_Nov_06_1555,test_final,3.1.5,60.20103532
,,,,2,0,2,0,0,0,0,0,,,,,,,,,,,,,,,,,,,,,,,,,,,,,,,,,,,,,,,22.0410078,None,hr,"['h', 'r']","[0.7149627999751829, 0.8642693999572657, 1.0692046999465674]",20.409262,None,20.409262,None,1,HR,20.409262,None,,,,,,,,,,,,,,,,,,,,,,,,,,,,,,,,,,,,,,,,,,,,,,,,,,,,,,,,,,,,,,,,,,,,,,,,,,,,,,,,,,,,,,,,,,,,,,,,,,,,pilot_3,1,2019_Nov_06_1555,test_final,3.1.5,60.20103532
,,,,2,0,2,0,1,0,1,0,,,,,,,,,,,,,,,,,,,,,,,,,,,,,,,,,,,,,,,23.339872,22.8232698,,,,,,,,,,,,,,,,,,,,,,,,,,,,,,,,,,,,,,,,,,,,,,,,,,,,,,,,,,,,,,,,,,,,,,,,,,,,,,,,,,,,,,,,,,,,,,,,,,,,,,,,,,,,,,,pilot_3,1,2019_Nov_06_1555,test_final,3.1.5,60.20103532
,,,,2,0,2,0,2,0,2,0,,,,,,,,,,,,,,,,,,,,,,,,,,,,,,,,,,,,,,,24.6384957,24.1290493,,,,,,,,,,,,,,,,,,,,,,,,,,,,,,,,,,,,,,,,,,,,,,,,,,,,,,,,,,,,,,,,,,,,,,,,,,,,,,,,,,,,,,,,,,,,,,,,,,,,,,,,,,,,,,,pilot_3,1,2019_Nov_06_1555,test_final,3.1.5,60.20103532
,,,,3,0,3,0,0,0,0,0,,,,,,,,,,,,,,,,,,,,,,,,,,,,,,,,,,,,,,,28.6178788,None,qtk,"['q', 't', 'k']","[1.2512540000025183, 1.6646208000020124, 1.8442510000313632, 2.1181372000137344]",25.937033,None,25.937033,None,1,QTK,25.937033,None,,,,,,,,,,,,,,,,,,,,,,,,,,,,,,,,,,,,,,,,,,,,,,,,,,,,,,,,,,,,,,,,,,,,,,,,,,,,,,,,,,,,,,,,,,,,,,,,,,,,pilot_3,1,2019_Nov_06_1555,test_final,3.1.5,60.20103532
,,,,3,0,3,0,1,0,1,0,,,,,,,,,,,,,,,,,,,,,,,,,,,,,,,,,,,,,,,29.9335834,None,,,,,,,,,,,,,,,,,,,,,,,,,,,,,,,,,,,,,,,,,,,,,,,,,,,,,,,,,,,,,,,,,,,,,,,,,,,,,,,,,,,,,,,,,,,,,,,,,,,,,,,,,,,,,,,pilot_3,1,2019_Nov_06_1555,test_final,3.1.5,60.20103532
,,,,3,0,3,0,2,0,2,0,,,,,,,,,,,,,,,,,,,,,,,,,,,,,,,,,,,,,,,31.2320121,None,,,,,,,,,,,,,,,,,,,,,,,,,,,,,,,,,,,,,,,,,,,,,,,,,,,,,,,,,,,,,,,,,,,,,,,,,,,,,,,,,,,,,,,,,,,,,,,,,,,,,,,,,,,,,,,pilot_3,1,2019_Nov_06_1555,test_final,3.1.5,60.20103532
,,,,4,0,4,0,0,0,0,0,,,,,,,,,,,,,,,,,,,,,,,,,,,,,,,,,,,,,,,35.5278517,None,vzk,"['v', 'z', 'k']","[0.4784926999709569, 1.5213060000096448, 1.6869484999915585, 2.44379960000515]",32.530899,None,32.530899,None,1,VZK,32.530899,None,,,,,,,,,,,,,,,,,,,,,,,,,,,,,,,,,,,,,,,,,,,,,,,,,,,,,,,,,,,,,,,,,,,,,,,,,,,,,,,,,,,,,,,,,,,,,,,,,,,,pilot_3,1,2019_Nov_06_1555,test_final,3.1.5,60.20103532
,,,,4,0,4,0,1,0,1,0,,,,,,,,,,,,,,,,,,,,,,,,,,,,,,,,,,,,,,,36.8431628,None,,,,,,,,,,,,,,,,,,,,,,,,,,,,,,,,,,,,,,,,,,,,,,,,,,,,,,,,,,,,,,,,,,,,,,,,,,,,,,,,,,,,,,,,,,,,,,,,,,,,,,,,,,,,,,,pilot_3,1,2019_Nov_06_1555,test_final,3.1.5,60.20103532
,,,,4,0,4,0,2,0,2,0,,,,,,,,,,,,,,,,,,,,,,,,,,,,,,,,,,,,,,,38.1421061,None,,,,,,,,,,,,,,,,,,,,,,,,,,,,,,,,,,,,,,,,,,,,,,,,,,,,,,,,,,,,,,,,,,,,,,,,,,,,,,,,,,,,,,,,,,,,,,,,,,,,,,,,,,,,,,,pilot_3,1,2019_Nov_06_1555,test_final,3.1.5,60.20103532
,,,,4,0,4,0,3,0,3,0,,,,,,,,,,,,,,,,,,,,,,,,,,,,,,,,,,,,,,,39.4406169,None,,,,,,,,,,,,,,,,,,,,,,,,,,,,,,,,,,,,,,,,,,,,,,,,,,,,,,,,,,,,,,,,,,,,,,,,,,,,,,,,,,,,,,,,,,,,,,,,,,,,,,,,,,,,,,,pilot_3,1,2019_Nov_06_1555,test_final,3.1.5,60.20103532
,,,,5,0,5,0,0,0,0,0,,,,,,,,,,,,,,,,,,,,,,,,,,,,,,,,,,,,,,,42.3542319,None,jqvn,"['j', 'q', 'v', 'n']","[0.43193319998681545, 0.1933135999715887, 0.5531455000163987, 0.7432580000022426, 1.0545778999803588]",40.7395675,None,40.7395675,None,1,JQVN,40.7395675,None,,,,,,,,,,,,,,,,,,,,,,,,,,,,,,,,,,,,,,,,,,,,,,,,,,,,,,,,,,,,,,,,,,,,,,,,,,,,,,,,,,,,,,,,,,,,,,,,,,,,pilot_3,1,2019_Nov_06_1555,test_final,3.1.5,60.20103532
,,,,5,0,5,0,1,0,1,0,,,,,,,,,,,,,,,,,,,,,,,,,,,,,,,,,,,,,,,43.6698012,None,,,,,,,,,,,,,,,,,,,,,,,,,,,,,,,,,,,,,,,,,,,,,,,,,,,,,,,,,,,,,,,,,,,,,,,,,,,,,,,,,,,,,,,,,,,,,,,,,,,,,,,,,,,,,,,pilot_3,1,2019_Nov_06_1555,test_final,3.1.5,60.20103532
,,,,5,0,5,0,2,0,2,0,,,,,,,,,,,,,,,,,,,,,,,,,,,,,,,,,,,,,,,44.9684066,None,,,,,,,,,,,,,,,,,,,,,,,,,,,,,,,,,,,,,,,,,,,,,,,,,,,,,,,,,,,,,,,,,,,,,,,,,,,,,,,,,,,,,,,,,,,,,,,,,,,,,,,,,,,,,,,pilot_3,1,2019_Nov_06_1555,test_final,3.1.5,60.20103532
,,,,5,0,5,0,3,0,3,0,,,,,,,,,,,,,,,,,,,,,,,,,,,,,,,,,,,,,,,46.2670317,None,,,,,,,,,,,,,,,,,,,,,,,,,,,,,,,,,,,,,,,,,,,,,,,,,,,,,,,,,,,,,,,,,,,,,,,,,,,,,,,,,,,,,,,,,,,,,,,,,,,,,,,,,,,,,,,pilot_3,1,2019_Nov_06_1555,test_final,3.1.5,60.20103532
,,,,6,0,6,0,0,0,0,0,,,,,,,,,,,,,,,,,,,,,,,,,,,,,,,,,,,,,,,49.5140737,None,lnhx,"['l', 'n', 'h', 'x']","[0.23211630003061146, 0.45246569998562336, 0.6459793000249192, 0.9071008000173606, 1.3967846999876201]",47.5660216,None,47.5660216,None,1,LNHX,47.5660216,None,,,,,,,,,,,,,,,,,,,,,,,,,,,,,,,,,,,,,,,,,,,,,,,,,,,,,,,,,,,,,,,,,,,,,,,,,,,,,,,,,,,,,,,,,,,,,,,,,,,,pilot_3,1,2019_Nov_06_1555,test_final,3.1.5,60.20103532
,,,,6,0,6,0,1,0,1,0,,,,,,,,,,,,,,,,,,,,,,,,,,,,,,,,,,,,,,,50.8292464,None,,,,,,,,,,,,,,,,,,,,,,,,,,,,,,,,,,,,,,,,,,,,,,,,,,,,,,,,,,,,,,,,,,,,,,,,,,,,,,,,,,,,,,,,,,,,,,,,,,,,,,,,,,,,,,,pilot_3,1,2019_Nov_06_1555,test_final,3.1.5,60.20103532
,,,,6,0,6,0,2,0,2,0,,,,,,,,,,,,,,,,,,,,,,,,,,,,,,,,,,,,,,,52.1281196,None,,,,,,,,,,,,,,,,,,,,,,,,,,,,,,,,,,,,,,,,,,,,,,,,,,,,,,,,,,,,,,,,,,,,,,,,,,,,,,,,,,,,,,,,,,,,,,,,,,,,,,,,,,,,,,,pilot_3,1,2019_Nov_06_1555,test_final,3.1.5,60.20103532
,,,,6,0,6,0,3,0,3,0,,,,,,,,,,,,,,,,,,,,,,,,,,,,,,,,,,,,,,,53.4268162,None,,,,,,,,,,,,,,,,,,,,,,,,,,,,,,,,,,,,,,,,,,,,,,,,,,,,,,,,,,,,,,,,,,,,,,,,,,,,,,,,,,,,,,,,,,,,,,,,,,,,,,,,,,,,,,,pilot_3,1,2019_Nov_06_1555,test_final,3.1.5,60.20103532
,,,,6,0,6,0,4,0,4,0,,,,,,,,,,,,,,,,,,,,,,,,,,,,,,,,,,,,,,,54.7256196,None,,,,,,,,,,,,,,,,,,,,,,,,,,,,,,,,,,,,,,,,,,,,,,,,,,,,,,,,,,,,,,,,,,,,,,,,,,,,,,,,,,,,,,,,,,,,,,,,,,,,,,,,,,,,,,,pilot_3,1,2019_Nov_06_1555,test_final,3.1.5,60.20103532
,,,,7,0,7,0,0,0,0,0,,,,,,,,,,,,,,,,,,,,,,,,,,,,,,,,,,,,,,,59.9539156,None,xhkjv,"['x', 'h', 'k', 'j', 'v']","[0.21850120002636686, 1.188752599991858, 1.5846948000253178, 2.2040046000038274, 2.576899699983187, 3.3712521999841556]",56.0244367,None,56.0244367,None,0,XHKJZ,56.0244367,None,,,,,,,,,,,,,,,,,,,,,,,,,,,,,,,,,,,,,,,,,,,,,,,,,,,,,,,,,,,,,,,,,,,,,,,,,,,,,,,,,,,,,,,,,,,,,,,,,,,,pilot_3,1,2019_Nov_06_1555,test_final,3.1.5,60.20103532
,,,,7,0,7,0,1,0,1,0,,,,,,,,,,,,,,,,,,,,,,,,,,,,,,,,,,,,,,,61.269091,None,,,,,,,,,,,,,,,,,,,,,,,,,,,,,,,,,,,,,,,,,,,,,,,,,,,,,,,,,,,,,,,,,,,,,,,,,,,,,,,,,,,,,,,,,,,,,,,,,,,,,,,,,,,,,,,pilot_3,1,2019_Nov_06_1555,test_final,3.1.5,60.20103532
,,,,7,0,7,0,2,0,2,0,,,,,,,,,,,,,,,,,,,,,,,,,,,,,,,,,,,,,,,62.5679483,None,,,,,,,,,,,,,,,,,,,,,,,,,,,,,,,,,,,,,,,,,,,,,,,,,,,,,,,,,,,,,,,,,,,,,,,,,,,,,,,,,,,,,,,,,,,,,,,,,,,,,,,,,,,,,,,pilot_3,1,2019_Nov_06_1555,test_final,3.1.5,60.20103532
,,,,7,0,7,0,3,0,3,0,,,,,,,,,,,,,,,,,,,,,,,,,,,,,,,,,,,,,,,63.8668091,None,,,,,,,,,,,,,,,,,,,,,,,,,,,,,,,,,,,,,,,,,,,,,,,,,,,,,,,,,,,,,,,,,,,,,,,,,,,,,,,,,,,,,,,,,,,,,,,,,,,,,,,,,,,,,,,pilot_3,1,2019_Nov_06_1555,test_final,3.1.5,60.20103532
,,,,7,0,7,0,4,0,4,0,,,,,,,,,,,,,,,,,,,,,,,,,,,,,,,,,,,,,,,65.1654095,None,,,,,,,,,,,,,,,,,,,,,,,,,,,,,,,,,,,,,,,,,,,,,,,,,,,,,,,,,,,,,,,,,,,,,,,,,,,,,,,,,,,,,,,,,,,,,,,,,,,,,,,,,,,,,,,pilot_3,1,2019_Nov_06_1555,test_final,3.1.5,60.20103532
,,,,8,0,8,0,0,0,0,0,,,,,,,,,,,,,,,,,,,,,,,,,,,,,,,,,,,,,,,70.3268612,None,nrkxs,"['n', 'r', 'k', 'x', 's']","[1.0067847999744117, 1.4147412999882363, 1.767870799987577, 2.4916595999966376, 2.782778299995698, 3.2987562000053003]",66.4639619,None,66.4639619,None,1,NRKXS,66.4639619,None,,,,,,,,,,,,,,,,,,,,,,,,,,,,,,,,,,,,,,,,,,,,,,,,,,,,,,,,,,,,,,,,,,,,,,,,,,,,,,,,,,,,,,,,,,,,,,,,,,,,pilot_3,1,2019_Nov_06_1555,test_final,3.1.5,60.20103532
,,,,8,0,8,0,1,0,1,0,,,,,,,,,,,,,,,,,,,,,,,,,,,,,,,,,,,,,,,71.6255106,71.1093139,,,,,,,,,,,,,,,,,,,,,,,,,,,,,,,,,,,,,,,,,,,,,,,,,,,,,,,,,,,,,,,,,,,,,,,,,,,,,,,,,,,,,,,,,,,,,,,,,,,,,,,,,,,,,,,pilot_3,1,2019_Nov_06_1555,test_final,3.1.5,60.20103532
,,,,8,0,8,0,2,0,2,0,,,,,,,,,,,,,,,,,,,,,,,,,,,,,,,,,,,,,,,72.9245512,72.4079119,,,,,,,,,,,,,,,,,,,,,,,,,,,,,,,,,,,,,,,,,,,,,,,,,,,,,,,,,,,,,,,,,,,,,,,,,,,,,,,,,,,,,,,,,,,,,,,,,,,,,,,,,,,,,,,pilot_3,1,2019_Nov_06_1555,test_final,3.1.5,60.20103532
,,,,8,0,8,0,3,0,3,0,,,,,,,,,,,,,,,,,,,,,,,,,,,,,,,,,,,,,,,74.2229734,73.7066549,,,,,,,,,,,,,,,,,,,,,,,,,,,,,,,,,,,,,,,,,,,,,,,,,,,,,,,,,,,,,,,,,,,,,,,,,,,,,,,,,,,,,,,,,,,,,,,,,,,,,,,,,,,,,,,pilot_3,1,2019_Nov_06_1555,test_final,3.1.5,60.20103532
,,,,8,0,8,0,4,0,4,0,,,,,,,,,,,,,,,,,,,,,,,,,,,,,,,,,,,,,,,75.5220822,75.0058623,,,,,,,,,,,,,,,,,,,,,,,,,,,,,,,,,,,,,,,,,,,,,,,,,,,,,,,,,,,,,,,,,,,,,,,,,,,,,,,,,,,,,,,,,,,,,,,,,,,,,,,,,,,,,,,pilot_3,1,2019_Nov_06_1555,test_final,3.1.5,60.20103532
,,,,9,0,9,0,0,0,0,0,,,,,,,,,,,,,,,,,,,,,,,,,,,,,,,,,,,,,,,80.3003512,None,xjqt,"['x', 'j', 'q', 't']","[1.0433342999895103, 1.3603675999911502, 2.072093099995982, 2.695605999964755, 2.8998595000011846]",76.8207177,None,76.8207177,None,0,XKJQT,76.8207177,None,,,,,,,,,,,,,,,,,,,,,,,,,,,,,,,,,,,,,,,,,,,,,,,,,,,,,,,,,,,,,,,,,,,,,,,,,,,,,,,,,,,,,,,,,,,,,,,,,,,,pilot_3,1,2019_Nov_06_1555,test_final,3.1.5,60.20103532
,,,,9,0,9,0,1,0,1,0,,,,,,,,,,,,,,,,,,,,,,,,,,,,,,,,,,,,,,,81.5992162,None,,,,,,,,,,,,,,,,,,,,,,,,,,,,,,,,,,,,,,,,,,,,,,,,,,,,,,,,,,,,,,,,,,,,,,,,,,,,,,,,,,,,,,,,,,,,,,,,,,,,,,,,,,,,,,,pilot_3,1,2019_Nov_06_1555,test_final,3.1.5,60.20103532
,,,,9,0,9,0,2,0,2,0,,,,,,,,,,,,,,,,,,,,,,,,,,,,,,,,,,,,,,,82.8980904,None,,,,,,,,,,,,,,,,,,,,,,,,,,,,,,,,,,,,,,,,,,,,,,,,,,,,,,,,,,,,,,,,,,,,,,,,,,,,,,,,,,,,,,,,,,,,,,,,,,,,,,,,,,,,,,,pilot_3,1,2019_Nov_06_1555,test_final,3.1.5,60.20103532
,,,,9,0,9,0,3,0,3,0,,,,,,,,,,,,,,,,,,,,,,,,,,,,,,,,,,,,,,,84.1967481,83.680196,,,,,,,,,,,,,,,,,,,,,,,,,,,,,,,,,,,,,,,,,,,,,,,,,,,,,,,,,,,,,,,,,,,,,,,,,,,,,,,,,,,,,,,,,,,,,,,,,,,,,,,,,,,,,,,pilot_3,1,2019_Nov_06_1555,test_final,3.1.5,60.20103532
,,,,9,0,9,0,4,0,4,0,,,,,,,,,,,,,,,,,,,,,,,,,,,,,,,,,,,,,,,85.4956563,84.9789512,,,,,,,,,,,,,,,,,,,,,,,,,,,,,,,,,,,,,,,,,,,,,,,,,,,,,,,,,,,,,,,,,,,,,,,,,,,,,,,,,,,,,,,,,,,,,,,,,,,,,,,,,,,,,,,pilot_3,1,2019_Nov_06_1555,test_final,3.1.5,60.20103532
,,,,10,0,10,0,0,0,0,0,,,,,,,,,,,,,,,,,,,,,,,,,,,,,,,,,,,,,,,89.5916161,None,rhjln,"['r', 'h', 'j', 'l', 'n']","[0.5475525000365451, 0.9613594000111334, 1.3602198000298813, 1.600918999989517, 1.8725617000018246, 2.2461791000096127]",86.79448,None,86.79448,None,1,RHJLN,86.79448,None,,,,,,,,,,,,,,,,,,,,,,,,,,,,,,,,,,,,,,,,,,,,,,,,,,,,,,,,,,,,,,,,,,,,,,,,,,,,,,,,,,,,,,,,,,,,,,,,,,,,pilot_3,1,2019_Nov_06_1555,test_final,3.1.5,60.20103532
,,,,10,0,10,0,1,0,1,0,,,,,,,,,,,,,,,,,,,,,,,,,,,,,,,,,,,,,,,90.9066937,None,,,,,,,,,,,,,,,,,,,,,,,,,,,,,,,,,,,,,,,,,,,,,,,,,,,,,,,,,,,,,,,,,,,,,,,,,,,,,,,,,,,,,,,,,,,,,,,,,,,,,,,,,,,,,,,pilot_3,1,2019_Nov_06_1555,test_final,3.1.5,60.20103532
,,,,10,0,10,0,2,0,2,0,,,,,,,,,,,,,,,,,,,,,,,,,,,,,,,,,,,,,,,92.2057438,None,,,,,,,,,,,,,,,,,,,,,,,,,,,,,,,,,,,,,,,,,,,,,,,,,,,,,,,,,,,,,,,,,,,,,,,,,,,,,,,,,,,,,,,,,,,,,,,,,,,,,,,,,,,,,,,pilot_3,1,2019_Nov_06_1555,test_final,3.1.5,60.20103532
,,,,10,0,10,0,3,0,3,0,,,,,,,,,,,,,,,,,,,,,,,,,,,,,,,,,,,,,,,93.5042408,None,,,,,,,,,,,,,,,,,,,,,,,,,,,,,,,,,,,,,,,,,,,,,,,,,,,,,,,,,,,,,,,,,,,,,,,,,,,,,,,,,,,,,,,,,,,,,,,,,,,,,,,,,,,,,,,pilot_3,1,2019_Nov_06_1555,test_final,3.1.5,60.20103532
,,,,10,0,10,0,4,0,4,0,,,,,,,,,,,,,,,,,,,,,,,,,,,,,,,,,,,,,,,94.8031514,None,,,,,,,,,,,,,,,,,,,,,,,,,,,,,,,,,,,,,,,,,,,,,,,,,,,,,,,,,,,,,,,,,,,,,,,,,,,,,,,,,,,,,,,,,,,,,,,,,,,,,,,,,,,,,,,pilot_3,1,2019_Nov_06_1555,test_final,3.1.5,60.20103532
,,,,10,0,10,0,5,0,5,0,,,,,,,,,,,,,,,,,,,,,,,,,,,,,,,,,,,,,,,96.1018998,None,,,,,,,,,,,,,,,,,,,,,,,,,,,,,,,,,,,,,,,,,,,,,,,,,,,,,,,,,,,,,,,,,,,,,,,,,,,,,,,,,,,,,,,,,,,,,,,,,,,,,,,,,,,,,,,pilot_3,1,2019_Nov_06_1555,test_final,3.1.5,60.20103532
,,,,11,0,11,0,0,0,0,0,,,,,,,,,,,,,,,,,,,,,,,,,,,,,,,,,,,,,,,101.5964854,None,nrhjl,"['n', 'r', 'h', 'j', 'l']","[0.3797039000201039, 0.7461954000173137, 1.506733099988196, 2.1937048999825493, 2.43132269999478, 3.6334608999895863]",97.4004317,None,97.4004317,None,0,NRXHKL,97.4004317,None,,,,,,,,,,,,,,,,,,,,,,,,,,,,,,,,,,,,,,,,,,,,,,,,,,,,,,,,,,,,,,,,,,,,,,,,,,,,,,,,,,,,,,,,,,,,,,,,,,,,pilot_3,1,2019_Nov_06_1555,test_final,3.1.5,60.20103532
,,,,11,0,11,0,1,0,1,0,,,,,,,,,,,,,,,,,,,,,,,,,,,,,,,,,,,,,,,102.9117482,None,,,,,,,,,,,,,,,,,,,,,,,,,,,,,,,,,,,,,,,,,,,,,,,,,,,,,,,,,,,,,,,,,,,,,,,,,,,,,,,,,,,,,,,,,,,,,,,,,,,,,,,,,,,,,,,pilot_3,1,2019_Nov_06_1555,test_final,3.1.5,60.20103532
,,,,11,0,11,0,2,0,2,0,,,,,,,,,,,,,,,,,,,,,,,,,,,,,,,,,,,,,,,104.2105135,None,,,,,,,,,,,,,,,,,,,,,,,,,,,,,,,,,,,,,,,,,,,,,,,,,,,,,,,,,,,,,,,,,,,,,,,,,,,,,,,,,,,,,,,,,,,,,,,,,,,,,,,,,,,,,,,pilot_3,1,2019_Nov_06_1555,test_final,3.1.5,60.20103532
,,,,11,0,11,0,3,0,3,0,,,,,,,,,,,,,,,,,,,,,,,,,,,,,,,,,,,,,,,105.5088424,None,,,,,,,,,,,,,,,,,,,,,,,,,,,,,,,,,,,,,,,,,,,,,,,,,,,,,,,,,,,,,,,,,,,,,,,,,,,,,,,,,,,,,,,,,,,,,,,,,,,,,,,,,,,,,,,pilot_3,1,2019_Nov_06_1555,test_final,3.1.5,60.20103532
,,,,11,0,11,0,4,0,4,0,,,,,,,,,,,,,,,,,,,,,,,,,,,,,,,,,,,,,,,106.8076396,None,,,,,,,,,,,,,,,,,,,,,,,,,,,,,,,,,,,,,,,,,,,,,,,,,,,,,,,,,,,,,,,,,,,,,,,,,,,,,,,,,,,,,,,,,,,,,,,,,,,,,,,,,,,,,,,pilot_3,1,2019_Nov_06_1555,test_final,3.1.5,60.20103532
,,,,11,0,11,0,5,0,5,0,,,,,,,,,,,,,,,,,,,,,,,,,,,,,,,,,,,,,,,108.1064518,None,,,,,,,,,,,,,,,,,,,,,,,,,,,,,,,,,,,,,,,,,,,,,,,,,,,,,,,,,,,,,,,,,,,,,,,,,,,,,,,,,,,,,,,,,,,,,,,,,,,,,,,,,,,,,,,pilot_3,1,2019_Nov_06_1555,test_final,3.1.5,60.20103532
,,,,12,0,12,0,0,0,0,0,,,,,,,,,,,,,,,,,,,,,,,,,,,,,,,,,,,,,,,112.5523505,None,jlntvs,"['j', 'l', 'n', 't', 'v', 's']","[0.37386190000688657, 0.5638936000177637, 0.9720802000374533, 1.334865599987097, 1.8259428000310436, 2.0687143999966793, 2.5934283999959007]",109.4053891,None,109.4053891,None,1,JLNTVS,109.4053891,None,,,,,,,,,,,,,,,,,,,,,,,,,,,,,,,,,,,,,,,,,,,,,,,,,,,,,,,,,,,,,,,,,,,,,,,,,,,,,,,,,,,,,,,,,,,,,,,,,,,,pilot_3,1,2019_Nov_06_1555,test_final,3.1.5,60.20103532
,,,,12,0,12,0,1,0,1,0,,,,,,,,,,,,,,,,,,,,,,,,,,,,,,,,,,,,,,,113.8509145,113.3346349,,,,,,,,,,,,,,,,,,,,,,,,,,,,,,,,,,,,,,,,,,,,,,,,,,,,,,,,,,,,,,,,,,,,,,,,,,,,,,,,,,,,,,,,,,,,,,,,,,,,,,,,,,,,,,,pilot_3,1,2019_Nov_06_1555,test_final,3.1.5,60.20103532
,,,,12,0,12,0,2,0,2,0,,,,,,,,,,,,,,,,,,,,,,,,,,,,,,,,,,,,,,,115.1497908,114.633295,,,,,,,,,,,,,,,,,,,,,,,,,,,,,,,,,,,,,,,,,,,,,,,,,,,,,,,,,,,,,,,,,,,,,,,,,,,,,,,,,,,,,,,,,,,,,,,,,,,,,,,,,,,,,,,pilot_3,1,2019_Nov_06_1555,test_final,3.1.5,60.20103532
,,,,12,0,12,0,3,0,3,0,,,,,,,,,,,,,,,,,,,,,,,,,,,,,,,,,,,,,,,116.4480791,115.9327084,,,,,,,,,,,,,,,,,,,,,,,,,,,,,,,,,,,,,,,,,,,,,,,,,,,,,,,,,,,,,,,,,,,,,,,,,,,,,,,,,,,,,,,,,,,,,,,,,,,,,,,,,,,,,,,pilot_3,1,2019_Nov_06_1555,test_final,3.1.5,60.20103532
,,,,12,0,12,0,4,0,4,0,,,,,,,,,,,,,,,,,,,,,,,,,,,,,,,,,,,,,,,117.7469288,117.2305482,,,,,,,,,,,,,,,,,,,,,,,,,,,,,,,,,,,,,,,,,,,,,,,,,,,,,,,,,,,,,,,,,,,,,,,,,,,,,,,,,,,,,,,,,,,,,,,,,,,,,,,,,,,,,,,pilot_3,1,2019_Nov_06_1555,test_final,3.1.5,60.20103532
,,,,12,0,12,0,5,0,5,0,,,,,,,,,,,,,,,,,,,,,,,,,,,,,,,,,,,,,,,119.045778,118.5295971,,,,,,,,,,,,,,,,,,,,,,,,,,,,,,,,,,,,,,,,,,,,,,,,,,,,,,,,,,,,,,,,,,,,,,,,,,,,,,,,,,,,,,,,,,,,,,,,,,,,,,,,,,,,,,,pilot_3,1,2019_Nov_06_1555,test_final,3.1.5,60.20103532
,,,,13,0,13,0,0,0,0,0,,,,,,,,,,,,,,,,,,,,,,,,,,,,,,,,,,,,,,,127.288131,None,nrhskt,"['n', 'r', 'h', 's', 'k', 't']","[0.7065248999861069, 1.0228201999561861, 3.9669224999961443, 4.716772699961439, 4.910976399958599, 5.180937999975868, 6.387176799995359]",120.3444875,None,120.3444875,None,0,NRHKST,120.3444875,None,,,,,,,,,,,,,,,,,,,,,,,,,,,,,,,,,,,,,,,,,,,,,,,,,,,,,,,,,,,,,,,,,,,,,,,,,,,,,,,,,,,,,,,,,,,,,,,,,,,,pilot_3,1,2019_Nov_06_1555,test_final,3.1.5,60.20103532
,,,,13,0,13,0,1,0,1,0,,,,,,,,,,,,,,,,,,,,,,,,,,,,,,,,,,,,,,,128.603055,None,,,,,,,,,,,,,,,,,,,,,,,,,,,,,,,,,,,,,,,,,,,,,,,,,,,,,,,,,,,,,,,,,,,,,,,,,,,,,,,,,,,,,,,,,,,,,,,,,,,,,,,,,,,,,,,pilot_3,1,2019_Nov_06_1555,test_final,3.1.5,60.20103532
,,,,13,0,13,0,2,0,2,0,,,,,,,,,,,,,,,,,,,,,,,,,,,,,,,,,,,,,,,129.9017596,None,,,,,,,,,,,,,,,,,,,,,,,,,,,,,,,,,,,,,,,,,,,,,,,,,,,,,,,,,,,,,,,,,,,,,,,,,,,,,,,,,,,,,,,,,,,,,,,,,,,,,,,,,,,,,,,pilot_3,1,2019_Nov_06_1555,test_final,3.1.5,60.20103532
,,,,13,0,13,0,3,0,3,0,,,,,,,,,,,,,,,,,,,,,,,,,,,,,,,,,,,,,,,131.2006357,None,,,,,,,,,,,,,,,,,,,,,,,,,,,,,,,,,,,,,,,,,,,,,,,,,,,,,,,,,,,,,,,,,,,,,,,,,,,,,,,,,,,,,,,,,,,,,,,,,,,,,,,,,,,,,,,pilot_3,1,2019_Nov_06_1555,test_final,3.1.5,60.20103532
,,,,13,0,13,0,4,0,4,0,,,,,,,,,,,,,,,,,,,,,,,,,,,,,,,,,,,,,,,132.4993406,None,,,,,,,,,,,,,,,,,,,,,,,,,,,,,,,,,,,,,,,,,,,,,,,,,,,,,,,,,,,,,,,,,,,,,,,,,,,,,,,,,,,,,,,,,,,,,,,,,,,,,,,,,,,,,,,pilot_3,1,2019_Nov_06_1555,test_final,3.1.5,60.20103532
,,,,13,0,13,0,5,0,5,0,,,,,,,,,,,,,,,,,,,,,,,,,,,,,,,,,,,,,,,133.7977933,133.2816244,,,,,,,,,,,,,,,,,,,,,,,,,,,,,,,,,,,,,,,,,,,,,,,,,,,,,,,,,,,,,,,,,,,,,,,,,,,,,,,,,,,,,,,,,,,,,,,,,,,,,,,,,,,,,,,pilot_3,1,2019_Nov_06_1555,test_final,3.1.5,60.20103532
,,,,,,,,,,,,,,,,,,,,,,,,,,,,,,,,,,,,,,,,,,,,,,,,,,,,tzqxjv,"['t', 'z', 'q', 'x', 'j', 'v']","[0.33109649998368695, 0.7481191999977455, 1.282023100007791, 5.502860200009309, 5.685413800005335, 5.8586653000093065, 6.307762500015087]",135.0968069,None,135.0968069,None,0,TZQXLV,135.0968069,None,141.9563292,None,space,1.3070439,141.9563292,None,,,,,,,,,,,,,,,,,,,,,,,,,,,,,,,,,,,,,,,,,,,,,,,,,,,,,,,,,,,,,,,,,,,,,,,,,,,,,,,,,,,,,,,,,,,,,,pilot_3,1,2019_Nov_06_1555,test_final,3.1.5,60.20103532
Practice,7,(4x6) - 17,7,,,,,,,,,0,0,0,0,0,0,0,6,,,,,,,,,,,,,,,,,,,,,,,,,,,,,,,,,,,,,,,,,,,,,,,,,,7,143.8376364,None,['7'],0,[11.959805999998935],143.8376364,None,143.8376364,None,143.8376364,None,156.342692,None,,,,,,,,,,,,,,,,,,,,,,,,,,,,,,,,,,,,,,,,,,,,,,,,,,,,,,,,,,,,,,,,,,,,,,,,,,,,,,,,pilot_3,1,2019_Nov_06_1555,test_final,3.1.5,60.20103532
Practice,11,(5x3) - 7,8,,,,,,,,,0,0,0,0,0,1,1,10,,,,,,,,,,,,,,,,,,,,,,,,,,,,,,,,,,,,,,,,,,,,,,,,,,8,157.8412463,None,['8'],0,[2.6071291000116616],157.8412463,None,157.8412463,None,157.8412463,None,160.9881418,None,,,,,,,,,,,,,,,,,,,,,,,,,,,,,,,,,,,,,,,,,,,,,,,,,,,,,,,,,,,,,,,,,,,,,,,,,,,,,,,,pilot_3,1,2019_Nov_06_1555,test_final,3.1.5,60.20103532
Practice,15,(9/3) - 2,1,,,,,,,,,0,0,0,0,0,2,2,14,,,,,,,,,,,,,,,,,,,,,,,,,,,,,,,,,,,,,,,,,,,,,,,,,,1,162.4867147,None,['1'],0,[2.0595941999927163],162.4867147,None,162.4867147,None,162.4867147,None,165.0842631,None,,,,,,,,,,,,,,,,,,,,,,,,,,,,,,,,,,,,,,,,,,,,,,,,,,,,,,,,,,,,,,,,,,,,,,,,,,,,,,,,pilot_3,1,2019_Nov_06_1555,test_final,3.1.5,60.20103532
Practice,1,(1x2) + 1,3,,,,,,,,,0,0,0,0,0,3,3,0,,,,,,,,,,,,,,,,,,,,,,,,,,,,,,,,,,,,,,,,,,,,,,,,,,3,166.582473,None,['3'],0,[1.5330548000056297],166.582473,None,166.582473,None,166.582473,None,168.6472794,None,,,,,,,,,,,,,,,,,,,,,,,,,,,,,,,,,,,,,,,,,,,,,,,,,,,,,,,,,,,,,,,,,,,,,,,,,,,,,,,,pilot_3,1,2019_Nov_06_1555,test_final,3.1.5,60.20103532
Practice,5,(3/3) + 2,3,,,,,,,,,0,0,0,0,0,4,4,4,,,,,,,,,,,,,,,,,,,,,,,,,,,,,,,,,,,,,,,,,,,,,,,,,,3,170.1457442,None,['3'],0,[2.8416459999862127],170.1457442,None,170.1457442,None,170.1457442,None,173.5257854,None,,,,,,,,,,,,,,,,,,,,,,,,,,,,,,,,,,,,,,,,,,,,,,,,,,,,,,,,,,,,,,,,,,,,,,,,,,,,,,,,pilot_3,1,2019_Nov_06_1555,test_final,3.1.5,60.20103532
Practice,10,(8/4) + 3,5,,,,,,,,,0,0,0,0,0,5,5,9,,,,,,,,,,,,,,,,,,,,,,,,,,,,,,,,,,,,,,,,,,,,,,,,,,5,175.0245553,None,['5'],0,[2.350932300032582],175.0245553,None,175.0245553,None,175.0245553,None,177.9214853,None,,,,,,,,,,,,,,,,,,,,,,,,,,,,,,,,,,,,,,,,,,,,,,,,,,,,,,,,,,,,,,,,,,,,,,,,,,,,,,,,pilot_3,1,2019_Nov_06_1555,test_final,3.1.5,60.20103532
Practice,2,(1/1) - 1,0,,,,,,,,,0,0,0,0,0,6,6,1,,,,,,,,,,,,,,,,,,,,,,,,,,,,,,,,,,,,,,,,,,,,,,,,,,0,179.4199581,None,['0'],0,[1.8488151000346988],179.4199581,None,179.4199581,None,179.4199581,None,181.8007929,None,,,,,,,,,,,,,,,,,,,,,,,,,,,,,,,,,,,,,,,,,,,,,,,,,,,,,,,,,,,,,,,,,,,,,,,,,,,,,,,,pilot_3,1,2019_Nov_06_1555,test_final,3.1.5,60.20103532
Practice,4,(4x4) - 14,2,,,,,,,,,0,0,0,0,0,7,7,3,,,,,,,,,,,,,,,,,,,,,,,,,,,,,,,,,,,,,,,,,,,,,,,,,,2,183.2995161,None,['2'],0,[9.244196199986618],183.2995161,None,183.2995161,None,183.2995161,None,193.0903984,None,,,,,,,,,,,,,,,,,,,,,,,,,,,,,,,,,,,,,,,,,,,,,,,,,,,,,,,,,,,,,,,,,,,,,,,,,,,,,,,,pilot_3,1,2019_Nov_06_1555,test_final,3.1.5,60.20103532
Practice,12,(8/2) + 4,8,,,,,,,,,0,0,0,0,0,8,8,11,,,,,,,,,,,,,,,,,,,,,,,,,,,,,,,,,,,,,,,,,,,,,,,,,,8,194.5884034,None,['8'],0,[2.0570468999794684],194.5884034,None,194.5884034,None,194.5884034,None,197.1860262,None,,,,,,,,,,,,,,,,,,,,,,,,,,,,,,,,,,,,,,,,,,,,,,,,,,,,,,,,,,,,,,,,,,,,,,,,,,,,,,,,pilot_3,1,2019_Nov_06_1555,test_final,3.1.5,60.20103532
Practice,6,(2x6) - 8,4,,,,,,,,,0,0,0,0,0,9,9,5,,,,,,,,,,,,,,,,,,,,,,,,,,,,,,,,,,,,,,,,,,,,,,,,,,4,198.6843229,None,['4'],0,[3.684577400039416],198.6843229,None,198.6843229,None,198.6843229,None,202.9137962,None,,,,,,,,,,,,,,,,,,,,,,,,,,,,,,,,,,,,,,,,,,,,,,,,,,,,,,,,,,,,,,,,,,,,,,,,,,,,,,,,pilot_3,1,2019_Nov_06_1555,test_final,3.1.5,60.20103532
Practice,13,(3x8) - 19 ,5,,,,,,,,,0,0,0,0,0,10,10,12,,,,,,,,,,,,,,,,,,,,,,,,,,,,,,,,,,,,,,,,,,,,,,,,,,5,204.4123495,None,['5'],0,[3.8282572999596596],204.4123495,None,204.4123495,None,204.4123495,None,208.7748017,None,,,,,,,,,,,,,,,,,,,,,,,,,,,,,,,,,,,,,,,,,,,,,,,,,,,,,,,,,,,,,,,,,,,,,,,,,,,,,,,,pilot_3,1,2019_Nov_06_1555,test_final,3.1.5,60.20103532
Practice,14,(6/3) + 4 ,6,,,,,,,,,0,0,0,0,0,11,11,13,,,,,,,,,,,,,,,,,,,,,,,,,,,,,,,,,,,,,,,,,,,,,,,,,,7,210.2731412,None,['7'],0,[2.1389889999991283],210.2731412,None,210.2731412,None,210.2731412,None,212.9537749,None,,,,,,,,,,,,,,,,,,,,,,,,,,,,,,,,,,,,,,,,,,,,,,,,,,,,,,,,,,,,,,,,,,,,,,,,,,,,,,,,pilot_3,1,2019_Nov_06_1555,test_final,3.1.5,60.20103532
Practice,8,(3/3) + 5,6,,,,,,,,,0,0,0,0,0,12,12,7,,,,,,,,,,,,,,,,,,,,,,,,,,,,,,,,,,,,,,,,,,,,,,,,,,6,214.4526074,None,['6'],0,[2.09262559999479],214.4526074,None,214.4526074,None,214.4526074,None,217.0829025,None,,,,,,,,,,,,,,,,,,,,,,,,,,,,,,,,,,,,,,,,,,,,,,,,,,,,,,,,,,,,,,,,,,,,,,,,,,,,,,,,pilot_3,1,2019_Nov_06_1555,test_final,3.1.5,60.20103532
Practice,9,(4/2) + 5,7,,,,,,,,,0,0,0,0,0,13,13,8,,,,,,,,,,,,,,,,,,,,,,,,,,,,,,,,,,,,,,,,,,,,,,,,,,7,218.5819306,None,['7'],0,[1.7525528999976814],218.5819306,None,218.5819306,None,218.5819306,None,220.8791802,None,,,,,,,,,,,,,,,,,,,,,,,,,,,,,,,,,,,,,,,,,,,,,,,,,,,,,,,,,,,,,,,,,,,,,,,,,,,,,,,,pilot_3,1,2019_Nov_06_1555,test_final,3.1.5,60.20103532
Practice,3,(7x2) - 5,9,,,,,,,,,0,0,0,0,0,14,14,2,,,,,,,,,,,,,,,,,,,,,,,,,,,,,,,,,,,,,,,,,,,,,,,,,,9,222.3778701,None,['9'],0,[8.06547099997988],222.3778701,None,222.3778701,None,222.3778701,None,230.9866644,None,,,,,,,,,,,,,,,,,,,,,,,,,,,,,,,,,,,,,,,,,,,,,,,,,,,,,,,,,,,,,,,,,,,,,,,,,,,,,,,,pilot_3,1,2019_Nov_06_1555,test_final,3.1.5,60.20103532
,,,,,,,,,,,,0,0,0,0,,,,,,,,,,,,,,,,,,,,,,,,,,,,,,,,,,,,,,,,,,,,,,,,,,,,,,,,,,,,,,,,,,,,0.933333333,232.4847665,None,space,2.7858533,232.4847665,None,,,,,,,,,,,,,,,,,,,,,,,,,,,,,,,,,,,,,,,,,,,,,,,,,,,,,,,,,,,,,,,,,,,,,,,,,pilot_3,1,2019_Nov_06_1555,test_final,3.1.5,60.20103532
,,,,,,,,,,,,,,,,,,,,,,,,,,,,,,,,,,,,,,,,,,,,,,,,,,,,,,,,,,,,,,,,,,,,,,,,,,,,,,,,,,,,,,,,,,235.8317434,None,space,4.0798633,235.8317434,None,,,,,,,,,,,,,,,,,,,,,,,,,,,,,,,,,,,,,,,,,,,,,,,,,,,,,,,,,,,,,,,,,,,pilot_3,1,2019_Nov_06_1555,test_final,3.1.5,60.20103532
Practice,5,(3/3) + 2,3,,,,,,,,,,,,,,,,,0,0,0,0,0,0,0,0,0,0,0,4,,,,,,,,,,,,,,,,,,,,,,,,,,,,,,,,,,,,,,3,,,,,,,,,,,,,,,,,,,,,,,,,,,240.4598067,None,['3'],0,[2.9829448999953456],240.4598067,None,240.4598067,None,240.4598067,None,1,243.5341861,None,243.5341861,None,,,,,,,,,,,,,,,,,,,,,,,,,,,,,,,,,,,,,,,,,,,,,,,,,,,pilot_3,1,2019_Nov_06_1555,test_final,3.1.5,60.20103532
,,,,,,,,,,,,,,,,,,,,0,0,0,0,0,0,0,0,,,,,,,,,,,,,,,,,,,,,,,,,,,,,,,,,,,,,,,,,,,,,,,,,,,,,,,,,,,,,,,,,,,,,,,,,,,,,,,,,,,,,244.8719882,None,,,,,,,,,,,,,,,,,,,,,,,,,,,,,,,,,,,,,,,,,,,,,,,,,pilot_3,1,2019_Nov_06_1555,test_final,3.1.5,60.20103532
Practice,9,(4/2) + 5,7,,,,,,,,,,,,,,,,,0,0,0,0,1,0,1,0,0,0,0,8,,,,,,,,,,,,,,,,,,,,,,,,,,,,,,,,,,,,,,7,,,,,,,,,,,,,,,,,,,,,,,,,,,246.1707014,None,['7'],0,[1.773352700052783],246.1707014,None,246.1707014,None,246.1707014,None,1,248.01663,None,248.01663,None,,,,,,,,,,,,,,,,,,,,,,,,,,,,,,,,,,,,,,,,,,,,,,,,,,,pilot_3,1,2019_Nov_06_1555,test_final,3.1.5,60.20103532
,,,,,,,,,,,,,,,,,,,,0,0,0,0,1,0,1,0,,,,,,,,,,,,,,,,,,,,,,,,,,,,,,,,,,,,,,,,,,,,,,,,,,,,,,,,,,,,,,,,,,,,,,,,,,,,,,,,,,,,,249.3674535,None,,,,,,,,,,,,,,,,,,,,,,,,,,,,,,,,,,,,,,,,,,,,,,,,,pilot_3,1,2019_Nov_06_1555,test_final,3.1.5,60.20103532
,,,,,,,,,,,,,,,,,,,,0,0,0,0,,,,,,,,,,,,,,,,,,,,,,,,,,,,,,,,,,,,,,,,,,,,,,,,,,,,,,,,,,,,,,,,,,,,,,,,,,,,,,,,,,,,,,,,,,,qv,"['q', 'v']",0,"[2.3279009999823757, 2.4546035999665037, 3.5817786999978125]",250.6496729,None,250.6496729,None,250.6496729,None,1,254.7957376,None,,,,,,,,,,,,,,,,,,,,,,,,,,,,,,,,,,,,pilot_3,1,2019_Nov_06_1555,test_final,3.1.5,60.20103532
Practice,7,(4x6) - 17,7,,,,,,,,,,,,,,,,,1,0,1,0,0,0,0,0,0,0,0,6,,,,,,,,,,,,,,,,,,,,,,,,,,,,,,,,,,,,,,7,,,,,,,,,,,,,,,,,,,,,,,,,,,256.3277641,None,['7'],0,[7.1674491000012495],256.3277641,None,256.3277641,None,256.3277641,None,1,263.5683862,None,263.5683862,None,,,,,,,,,,,,,,,,,,,,,,,,,,,,,,,,,,,,,,,,,,,,,,,,,,,pilot_3,1,2019_Nov_06_1555,test_final,3.1.5,60.20103532
,,,,,,,,,,,,,,,,,,,,1,0,1,0,0,0,0,0,,,,,,,,,,,,,,,,,,,,,,,,,,,,,,,,,,,,,,,,,,,,,,,,,,,,,,,,,,,,,,,,,,,,,,,,,,,,,,,,,,,,,264.9194351,None,,,,,,,,,,,,,,,,,,,,,,,,,,,,,,,,,,,,,,,,,,,,,,,,,pilot_3,1,2019_Nov_06_1555,test_final,3.1.5,60.20103532
Practice,7,(4x6) - 17,7,,,,,,,,,,,,,,,,,1,0,1,0,1,0,1,0,0,0,0,6,,,,,,,,,,,,,,,,,,,,,,,,,,,,,,,,,,,,,,7,,,,,,,,,,,,,,,,,,,,,,,,,,,266.2348063,None,['7'],0,[1.8009595000185072],266.2348063,None,266.2348063,None,266.2348063,None,1,268.1255722,None,268.1255722,None,,,,,,,,,,,,,,,,,,,,,,,,,,,,,,,,,,,,,,,,,,,,,,,,,,,pilot_3,1,2019_Nov_06_1555,test_final,3.1.5,60.20103532
,,,,,,,,,,,,,,,,,,,,1,0,1,0,1,0,1,0,,,,,,,,,,,,,,,,,,,,,,,,,,,,,,,,,,,,,,,,,,,,,,,,,,,,,,,,,,,,,,,,,,,,,,,,,,,,,,,,,,,,,269.48218,None,,,,,,,,,,,,,,,,,,,,,,,,,,,,,,,,,,,,,,,,,,,,,,,,,pilot_3,1,2019_Nov_06_1555,test_final,3.1.5,60.20103532
,,,,,,,,,,,,,,,,,,,,1,0,1,0,,,,,,,,,,,,,,,,,,,,,,,,,,,,,,,,,,,,,,,,,,,,,,,,,,,,,,,,,,,,,,,,,,,,,,,,,,,,,,,,,,,,,,,,,,,zv,"['z', 'v']",0,"[0.7492278999998234, 0.860981100006029, 1.3704768000170588]",270.7637198,None,270.7637198,None,270.7637198,None,1,272.6952007,None,,,,,,,,,,,,,,,,,,,,,,,,,,,,,,,,,,,,pilot_3,1,2019_Nov_06_1555,test_final,3.1.5,60.20103532
Practice,2,(1/1) - 1,0,,,,,,,,,,,,,,,,,2,0,2,0,0,0,0,0,0,0,0,1,,,,,,,,,,,,,,,,,,,,,,,,,,,,,,,,,,,,,,0,,,,,,,,,,,,,,,,,,,,,,,,,,,274.2273588,None,['0'],0,[1.6881602999637835],274.2273588,None,274.2273588,None,274.2273588,None,1,276.0041999,None,276.0041999,None,,,,,,,,,,,,,,,,,,,,,,,,,,,,,,,,,,,,,,,,,,,,,,,,,,,pilot_3,1,2019_Nov_06_1555,test_final,3.1.5,60.20103532
,,,,,,,,,,,,,,,,,,,,2,0,2,0,0,0,0,0,,,,,,,,,,,,,,,,,,,,,,,,,,,,,,,,,,,,,,,,,,,,,,,,,,,,,,,,,,,,,,,,,,,,,,,,,,,,,,,,,,,,,277.3404918,None,,,,,,,,,,,,,,,,,,,,,,,,,,,,,,,,,,,,,,,,,,,,,,,,,pilot_3,1,2019_Nov_06_1555,test_final,3.1.5,60.20103532
Practice,15,(9/3) - 2,1,,,,,,,,,,,,,,,,,2,0,2,0,1,0,1,0,0,0,0,14,,,,,,,,,,,,,,,,,,,,,,,,,,,,,,,,,,,,,,1,,,,,,,,,,,,,,,,,,,,,,,,,,,278.6726168,None,['1'],0,[1.6798359000240453],278.6726168,None,278.6726168,None,278.6726168,None,1,280.4538026,None,280.4538026,None,,,,,,,,,,,,,,,,,,,,,,,,,,,,,,,,,,,,,,,,,,,,,,,,,,,pilot_3,1,2019_Nov_06_1555,test_final,3.1.5,60.20103532
,,,,,,,,,,,,,,,,,,,,2,0,2,0,1,0,1,0,,,,,,,,,,,,,,,,,,,,,,,,,,,,,,,,,,,,,,,,,,,,,,,,,,,,,,,,,,,,,,,,,,,,,,,,,,,,,,,,,,,,,281.7860371,None,,,,,,,,,,,,,,,,,,,,,,,,,,,,,,,,,,,,,,,,,,,,,,,,,pilot_3,1,2019_Nov_06_1555,test_final,3.1.5,60.20103532
,,,,,,,,,,,,,,,,,,,,2,0,2,0,,,,,,,,,,,,,,,,,,,,,,,,,,,,,,,,,,,,,,,,,,,,,,,,,,,,,,,,,,,,,,,,,,,,,,,,,,,,,,,,,,,,,,,,,,,zt,"['z', 't']",0,"[1.2107423999696039, 1.3549736999557354, 1.8987753999535926]",283.0852129,None,283.0852129,None,283.0852129,None,0,285.5323269,None,,,,,,,,,,,,,,,,,,,,,,,,,,,,,,,,,,,,pilot_3,1,2019_Nov_06_1555,test_final,3.1.5,60.20103532
Practice,13,(3x8) - 19 ,5,,,,,,,,,,,,,,,,,3,0,3,0,0,0,0,0,0,0,0,12,,,,,,,,,,,,,,,,,,,,,,,,,,,,,,,,,,,,,,5,,,,,,,,,,,,,,,,,,,,,,,,,,,287.0810721,None,['5'],0,[4.811955899989698],287.0810721,None,287.0810721,None,287.0810721,None,1,291.9720091,None,291.9720091,None,,,,,,,,,,,,,,,,,,,,,,,,,,,,,,,,,,,,,,,,,,,,,,,,,,,pilot_3,1,2019_Nov_06_1555,test_final,3.1.5,60.20103532
,,,,,,,,,,,,,,,,,,,,3,0,3,0,0,0,0,0,,,,,,,,,,,,,,,,,,,,,,,,,,,,,,,,,,,,,,,,,,,,,,,,,,,,,,,,,,,,,,,,,,,,,,,,,,,,,,,,,,,,,293.3246548,None,,,,,,,,,,,,,,,,,,,,,,,,,,,,,,,,,,,,,,,,,,,,,,,,,pilot_3,1,2019_Nov_06_1555,test_final,3.1.5,60.20103532
Practice,11,(5x3) - 7,8,,,,,,,,,,,,,,,,,3,0,3,0,1,0,1,0,0,0,0,10,,,,,,,,,,,,,,,,,,,,,,,,,,,,,,,,,,,,,,8,,,,,,,,,,,,,,,,,,,,,,,,,,,294.6403476,None,['8'],0,[4.2827631999971345],294.6403476,None,294.6403476,None,294.6403476,None,1,299.0283337,None,299.0283337,None,,,,,,,,,,,,,,,,,,,,,,,,,,,,,,,,,,,,,,,,,,,,,,,,,,,pilot_3,1,2019_Nov_06_1555,test_final,3.1.5,60.20103532
,,,,,,,,,,,,,,,,,,,,3,0,3,0,1,0,1,0,,,,,,,,,,,,,,,,,,,,,,,,,,,,,,,,,,,,,,,,,,,,,,,,,,,,,,,,,,,,,,,,,,,,,,,,,,,,,,,,,,,,,300.3685352,None,,,,,,,,,,,,,,,,,,,,,,,,,,,,,,,,,,,,,,,,,,,,,,,,,pilot_3,1,2019_Nov_06_1555,test_final,3.1.5,60.20103532
,,,,,,,,,,,,,,,,,,,,3,0,3,0,,,,,,,,,,,,,,,,,,,,,,,,,,,,,,,,,,,,,,,,,,,,,,,,,,,,,,,,,,,,,,,,,,,,,,,,,,,,,,,,,,,,,,,,,,,zl,"['z', 'l']",0,"[0.8669158000266179, 0.9580427000182681, 1.3114635000238195]",301.6500562,None,301.6500562,None,301.6500562,None,1,303.5148267,None,,,,,,,,,,,,,,,,,,,,,,,,,,,,,,,,,,,,pilot_3,1,2019_Nov_06_1555,test_final,3.1.5,60.20103532
Practice,14,(6/3) + 4 ,6,,,,,,,,,,,,,,,,,4,0,4,0,0,0,0,0,0,0,0,13,,,,,,,,,,,,,,,,,,,,,,,,,,,,,,,,,,,,,,6,,,,,,,,,,,,,,,,,,,,,,,,,,,305.0635115,None,['6'],0,[3.6592295999871567],305.0635115,None,305.0635115,None,305.0635115,None,1,308.8091485,None,308.8091485,None,,,,,,,,,,,,,,,,,,,,,,,,,,,,,,,,,,,,,,,,,,,,,,,,,,,pilot_3,1,2019_Nov_06_1555,test_final,3.1.5,60.20103532
,,,,,,,,,,,,,,,,,,,,4,0,4,0,0,0,0,0,,,,,,,,,,,,,,,,,,,,,,,,,,,,,,,,,,,,,,,,,,,,,,,,,,,,,,,,,,,,,,,,,,,,,,,,,,,,,,,,,,,,,310.1582278,None,,,,,,,,,,,,,,,,,,,,,,,,,,,,,,,,,,,,,,,,,,,,,,,,,pilot_3,1,2019_Nov_06_1555,test_final,3.1.5,60.20103532
Practice,2,(1/1) - 1,0,,,,,,,,,,,,,,,,,4,0,4,0,1,0,1,0,0,0,0,1,,,,,,,,,,,,,,,,,,,,,,,,,,,,,,,,,,,,,,0,,,,,,,,,,,,,,,,,,,,,,,,,,,311.4736353,None,['0'],0,[1.7631596000283025],311.4736353,None,311.4736353,None,311.4736353,None,1,313.3188395,None,313.3188395,None,,,,,,,,,,,,,,,,,,,,,,,,,,,,,,,,,,,,,,,,,,,,,,,,,,,pilot_3,1,2019_Nov_06_1555,test_final,3.1.5,60.20103532
,,,,,,,,,,,,,,,,,,,,4,0,4,0,1,0,1,0,,,,,,,,,,,,,,,,,,,,,,,,,,,,,,,,,,,,,,,,,,,,,,,,,,,,,,,,,,,,,,,,,,,,,,,,,,,,,,,,,,,,,314.6706814,None,,,,,,,,,,,,,,,,,,,,,,,,,,,,,,,,,,,,,,,,,,,,,,,,,pilot_3,1,2019_Nov_06_1555,test_final,3.1.5,60.20103532
,,,,,,,,,,,,,,,,,,,,4,0,4,0,,,,,,,,,,,,,,,,,,,,,,,,,,,,,,,,,,,,,,,,,,,,,,,,,,,,,,,,,,,,,,,,,,,,,,,,,,,,,,,,,,,,,,,,,,,nv,"['n', 'v']",0,"[1.4470305000431836, 1.6759376000263728, 2.073078700050246]",315.9527696,None,315.9527696,None,315.9527696,None,1,318.5836655,None,,,,,,,,,,,,,,,,,,,,,,,,,,,,,,,,,,,,pilot_3,1,2019_Nov_06_1555,test_final,3.1.5,60.20103532
Practice,5,(3/3) + 2,3,,,,,,,,,,,,,,,,,5,0,5,0,0,0,0,0,0,0,0,4,,,,,,,,,,,,,,,,,,,,,,,,,,,,,,,,,,,,,,3,,,,,,,,,,,,,,,,,,,,,,,,,,,320.1319698,None,['3'],0,[3.075095100037288],320.1319698,None,320.1319698,None,320.1319698,None,1,323.291757,None,323.291757,None,,,,,,,,,,,,,,,,,,,,,,,,,,,,,,,,,,,,,,,,,,,,,,,,,,,pilot_3,1,2019_Nov_06_1555,test_final,3.1.5,60.20103532
,,,,,,,,,,,,,,,,,,,,5,0,5,0,0,0,0,0,,,,,,,,,,,,,,,,,,,,,,,,,,,,,,,,,,,,,,,,,,,,,,,,,,,,,,,,,,,,,,,,,,,,,,,,,,,,,,,,,,,,,324.6440695,None,,,,,,,,,,,,,,,,,,,,,,,,,,,,,,,,,,,,,,,,,,,,,,,,,pilot_3,1,2019_Nov_06_1555,test_final,3.1.5,60.20103532
Practice,5,(3/3) + 2,3,,,,,,,,,,,,,,,,,5,0,5,0,1,0,1,0,0,0,0,4,,,,,,,,,,,,,,,,,,,,,,,,,,,,,,,,,,,,,,3,,,,,,,,,,,,,,,,,,,,,,,,,,,325.942967,None,['3'],0,[2.2272213000105694],325.942967,None,325.942967,None,325.942967,None,1,328.2451747,None,328.2451747,None,,,,,,,,,,,,,,,,,,,,,,,,,,,,,,,,,,,,,,,,,,,,,,,,,,,pilot_3,1,2019_Nov_06_1555,test_final,3.1.5,60.20103532
,,,,,,,,,,,,,,,,,,,,5,0,5,0,1,0,1,0,,,,,,,,,,,,,,,,,,,,,,,,,,,,,,,,,,,,,,,,,,,,,,,,,,,,,,,,,,,,,,,,,,,,,,,,,,,,,,,,,,,,,329.5891956,None,,,,,,,,,,,,,,,,,,,,,,,,,,,,,,,,,,,,,,,,,,,,,,,,,pilot_3,1,2019_Nov_06_1555,test_final,3.1.5,60.20103532
,,,,,,,,,,,,,,,,,,,,5,0,5,0,,,,,,,,,,,,,,,,,,,,,,,,,,,,,,,,,,,,,,,,,,,,,,,,,,,,,,,,,,,,,,,,,,,,,,,,,,,,,,,,,,,,,,,,,,,rt,"['r', 't']",0,"[0.7757743999827653, 1.0362464999780059, 1.48891780001577]",330.887953,None,330.887953,None,330.887953,None,1,332.9362974,None,,,,,,,,,,,,,,,,,,,,,,,,,,,,,,,,,,,,pilot_3,1,2019_Nov_06_1555,test_final,3.1.5,60.20103532
,,,,,,,,,,,,,,,,,,,,,,,,,,,,,,,,,,,,,,,,,,,,,,,,,,,,,,,,,,,,,,,,,,,,,,,,,,,,,,,,,,,,,,,,,,,,,,,,,,,,,,,,,,,,,,,,,,,,,,,,,,,,,,,334.4517778,None,space,3.6335446,334.4517778,None,,,,,,,,,,,,,,,,,,,,,,,,,,,,,,pilot_3,1,2019_Nov_06_1555,test_final,3.1.5,60.20103532
Practice,10,(8/4) + 3,5,,,,,,,,,,,,,,,,,,,,,,,,,,,,,0,0,0,0,0,0,0,0,0,0,0,9,,,,,,,,,,,,,,,,,,,,,,,,,,5,,,,,,,,,,,,,,,,,,,,,,,,,,,,,,,,,,,,,,1,,,,,,,,,,,,,,,,,,,,,,,,,,338.6802526,None,['5'],0,[2.2671878000255674],338.6802526,None,338.6802526,None,338.6802526,None,341.0356994,None,341.0356994,None,,,,,,,,,,,,,,,pilot_3,1,2019_Nov_06_1555,test_final,3.1.5,60.20103532
,,,,,,,,,,,,,,,,,,,,,,,,,,,,,,,,0,0,0,0,0,0,0,0,,,,,,,,,,,,,,,,,,,,,,,,,,,,,,,,,,,,,,,,,,,,,,,,,,,,,,,,,,,,,,,,,,,,,,,,,,,,,,,,,,,,,,,,,,,,,,,,,,,,,,,,,,,,,342.3598553,None,,,,,,,,,,,,,pilot_3,1,2019_Nov_06_1555,test_final,3.1.5,60.20103532
Practice,8,(3/3) + 5,6,,,,,,,,,,,,,,,,,,,,,,,,,,,,,0,0,0,0,1,0,1,0,0,0,0,7,,,,,,,,,,,,,,,,,,,,,,,,,,6,,,,,,,,,,,,,,,,,,,,,,,,,,,,,,,,,,,,,,1,,,,,,,,,,,,,,,,,,,,,,,,,,343.6922579,None,['6'],0,[2.90409709996311],343.6922579,None,343.6922579,None,343.6922579,None,346.6823475,None,346.6823475,None,,,,,,,,,,,,,,,pilot_3,1,2019_Nov_06_1555,test_final,3.1.5,60.20103532
,,,,,,,,,,,,,,,,,,,,,,,,,,,,,,,,0,0,0,0,1,0,1,0,,,,,,,,,,,,,,,,,,,,,,,,,,,,,,,,,,,,,,,,,,,,,,,,,,,,,,,,,,,,,,,,,,,,,,,,,,,,,,,,,,,,,,,,,,,,,,,,,,,,,,,,,,,,,348.0381383,None,,,,,,,,,,,,,pilot_3,1,2019_Nov_06_1555,test_final,3.1.5,60.20103532
,,,,,,,,,,,,,,,,,,,,,,,,,,,,,,,,0,0,0,0,,,,,,,,,,,,,,,,,,,,,,,,,,,,,,,,,,,,,,,,,,,,,,,,,,,,,,,,,,,,,,,,,,,,,,,,,,,,,,,,,,,,,,,,,,,,,,,,,,,,,,,,,,,,,,,,,,,ht,"['h', 't']",0,"[1.272720400011167, 1.4056717000203207, 1.7861099999863654]",349.3198318,None,349.3198318,None,1,HT,349.3198318,None,pilot_3,1,2019_Nov_06_1555,test_final,3.1.5,60.20103532
Practice,3,(7x2) - 5,9,,,,,,,,,,,,,,,,,,,,,,,,,,,,,1,0,1,0,0,0,0,0,0,0,0,2,,,,,,,,,,,,,,,,,,,,,,,,,,9,,,,,,,,,,,,,,,,,,,,,,,,,,,,,,,,,,,,,,1,,,,,,,,,,,,,,,,,,,,,,,,,,351.6844329,None,['9'],0,[3.6502046000096016],351.6844329,None,351.6844329,None,351.6844329,None,355.4283793,None,355.4283793,None,,,,,,,,,,,,,,,pilot_3,1,2019_Nov_06_1555,test_final,3.1.5,60.20103532
,,,,,,,,,,,,,,,,,,,,,,,,,,,,,,,,1,0,1,0,0,0,0,0,,,,,,,,,,,,,,,,,,,,,,,,,,,,,,,,,,,,,,,,,,,,,,,,,,,,,,,,,,,,,,,,,,,,,,,,,,,,,,,,,,,,,,,,,,,,,,,,,,,,,,,,,,,,,356.77915,None,,,,,,,,,,,,,pilot_3,1,2019_Nov_06_1555,test_final,3.1.5,60.20103532
Practice,13,(3x8) - 19 ,5,,,,,,,,,,,,,,,,,,,,,,,,,,,,,1,0,1,0,1,0,1,0,0,0,0,12,,,,,,,,,,,,,,,,,,,,,,,,,,5,,,,,,,,,,,,,,,,,,,,,,,,,,,,,,,,,,,,,,1,,,,,,,,,,,,,,,,,,,,,,,,,,358.0944239,None,['5'],0,[5.543446499970742],358.0944239,None,358.0944239,None,358.0944239,None,363.7209159,None,363.7209159,None,,,,,,,,,,,,,,,pilot_3,1,2019_Nov_06_1555,test_final,3.1.5,60.20103532
,,,,,,,,,,,,,,,,,,,,,,,,,,,,,,,,1,0,1,0,1,0,1,0,,,,,,,,,,,,,,,,,,,,,,,,,,,,,,,,,,,,,,,,,,,,,,,,,,,,,,,,,,,,,,,,,,,,,,,,,,,,,,,,,,,,,,,,,,,,,,,,,,,,,,,,,,,,,365.0713157,None,,,,,,,,,,,,,pilot_3,1,2019_Nov_06_1555,test_final,3.1.5,60.20103532
Practice,8,(3/3) + 5,6,,,,,,,,,,,,,,,,,,,,,,,,,,,,,1,0,1,0,2,0,2,0,0,0,0,7,,,,,,,,,,,,,,,,,,,,,,,,,,6,,,,,,,,,,,,,,,,,,,,,,,,,,,,,,,,,,,,,,1,,,,,,,,,,,,,,,,,,,,,,,,,,366.3866054,None,['6'],0,[6.872333499952219],366.3866054,None,366.3866054,None,366.3866054,None,373.3253767,None,373.3253767,None,,,,,,,,,,,,,,,pilot_3,1,2019_Nov_06_1555,test_final,3.1.5,60.20103532
,,,,,,,,,,,,,,,,,,,,,,,,,,,,,,,,1,0,1,0,2,0,2,0,,,,,,,,,,,,,,,,,,,,,,,,,,,,,,,,,,,,,,,,,,,,,,,,,,,,,,,,,,,,,,,,,,,,,,,,,,,,,,,,,,,,,,,,,,,,,,,,,,,,,,,,,,,,,374.678514,None,,,,,,,,,,,,,pilot_3,1,2019_Nov_06_1555,test_final,3.1.5,60.20103532
,,,,,,,,,,,,,,,,,,,,,,,,,,,,,,,,1,0,1,0,,,,,,,,,,,,,,,,,,,,,,,,,,,,,,,,,,,,,,,,,,,,,,,,,,,,,,,,,,,,,,,,,,,,,,,,,,,,,,,,,,,,,,,,,,,,,,,,,,,,,,,,,,,,,,,,,,,rqj,"['r', 'q', 'j']",0,"[1.1863556999596767, 1.4989180999691598, 1.7113280999474227, 2.5594498999998905]",375.9609148,None,375.9609148,None,1,RQJ,375.9609148,None,pilot_3,1,2019_Nov_06_1555,test_final,3.1.5,60.20103532
Practice,15,(9/3) - 2,1,,,,,,,,,,,,,,,,,,,,,,,,,,,,,2,0,2,0,0,0,0,0,0,0,0,14,,,,,,,,,,,,,,,,,,,,,,,,,,1,,,,,,,,,,,,,,,,,,,,,,,,,,,,,,,,,,,,,,1,,,,,,,,,,,,,,,,,,,,,,,,,,379.0905661,None,['1'],0,[3.2838165999855846],379.0905661,None,379.0905661,None,379.0905661,None,382.4638948,None,382.4638948,None,,,,,,,,,,,,,,,pilot_3,1,2019_Nov_06_1555,test_final,3.1.5,60.20103532
,,,,,,,,,,,,,,,,,,,,,,,,,,,,,,,,2,0,2,0,0,0,0,0,,,,,,,,,,,,,,,,,,,,,,,,,,,,,,,,,,,,,,,,,,,,,,,,,,,,,,,,,,,,,,,,,,,,,,,,,,,,,,,,,,,,,,,,,,,,,,,,,,,,,,,,,,,,,383.8192624,None,,,,,,,,,,,,,pilot_3,1,2019_Nov_06_1555,test_final,3.1.5,60.20103532
Practice,4,(4x4) - 14,2,,,,,,,,,,,,,,,,,,,,,,,,,,,,,2,0,2,0,1,0,1,0,0,0,0,3,,,,,,,,,,,,,,,,,,,,,,,,,,2,,,,,,,,,,,,,,,,,,,,,,,,,,,,,,,,,,,,,,1,,,,,,,,,,,,,,,,,,,,,,,,,,385.1350371,None,['2'],0,[4.174362100020517],385.1350371,None,385.1350371,None,385.1350371,None,389.395012,None,389.395012,None,,,,,,,,,,,,,,,pilot_3,1,2019_Nov_06_1555,test_final,3.1.5,60.20103532
,,,,,,,,,,,,,,,,,,,,,,,,,,,,,,,,2,0,2,0,1,0,1,0,,,,,,,,,,,,,,,,,,,,,,,,,,,,,,,,,,,,,,,,,,,,,,,,,,,,,,,,,,,,,,,,,,,,,,,,,,,,,,,,,,,,,,,,,,,,,,,,,,,,,,,,,,,,,390.7456292,None,,,,,,,,,,,,,pilot_3,1,2019_Nov_06_1555,test_final,3.1.5,60.20103532
Practice,2,(1/1) - 1,0,,,,,,,,,,,,,,,,,,,,,,,,,,,,,2,0,2,0,2,0,2,0,0,0,0,1,,,,,,,,,,,,,,,,,,,,,,,,,,0,,,,,,,,,,,,,,,,,,,,,,,,,,,,,,,,,,,,,,1,,,,,,,,,,,,,,,,,,,,,,,,,,392.0447558,None,['0'],0,[1.3427766000386328],392.0447558,None,392.0447558,None,392.0447558,None,393.4707446,None,393.4707446,None,,,,,,,,,,,,,,,pilot_3,1,2019_Nov_06_1555,test_final,3.1.5,60.20103532
,,,,,,,,,,,,,,,,,,,,,,,,,,,,,,,,2,0,2,0,2,0,2,0,,,,,,,,,,,,,,,,,,,,,,,,,,,,,,,,,,,,,,,,,,,,,,,,,,,,,,,,,,,,,,,,,,,,,,,,,,,,,,,,,,,,,,,,,,,,,,,,,,,,,,,,,,,,,394.825386,None,,,,,,,,,,,,,pilot_3,1,2019_Nov_06_1555,test_final,3.1.5,60.20103532
Practice,11,(5x3) - 7,8,,,,,,,,,,,,,,,,,,,,,,,,,,,,,2,0,2,0,3,0,3,0,0,0,0,10,,,,,,,,,,,,,,,,,,,,,,,,,,8,,,,,,,,,,,,,,,,,,,,,,,,,,,,,,,,,,,,,,1,,,,,,,,,,,,,,,,,,,,,,,,,,396.14048,None,['8'],0,[4.800955899991095],396.14048,None,396.14048,None,396.14048,None,401.0185917,None,401.0185917,None,,,,,,,,,,,,,,,pilot_3,1,2019_Nov_06_1555,test_final,3.1.5,60.20103532
,,,,,,,,,,,,,,,,,,,,,,,,,,,,,,,,2,0,2,0,3,0,3,0,,,,,,,,,,,,,,,,,,,,,,,,,,,,,,,,,,,,,,,,,,,,,,,,,,,,,,,,,,,,,,,,,,,,,,,,,,,,,,,,,,,,,,,,,,,,,,,,,,,,,,,,,,,,,402.367847,None,,,,,,,,,,,,,pilot_3,1,2019_Nov_06_1555,test_final,3.1.5,60.20103532
,,,,,,,,,,,,,,,,,,,,,,,,,,,,,,,,2,0,2,0,,,,,,,,,,,,,,,,,,,,,,,,,,,,,,,,,,,,,,,,,,,,,,,,,,,,,,,,,,,,,,,,,,,,,,,,,,,,,,,,,,,,,,,,,,,,,,,,,,,,,,,,,,,,,,,,,,,jsnl,"['j', 's', 'n', 'l']",0,"[0.9256187999853864, 1.2590605999575928, 1.442684699955862, 1.6206284999498166, 2.0139607999590226]",403.6503784,None,403.6503784,None,1,JSNL,403.6503784,None,pilot_3,1,2019_Nov_06_1555,test_final,3.1.5,60.20103532
Practice,2,(1/1) - 1,0,,,,,,,,,,,,,,,,,,,,,,,,,,,,,3,0,3,0,0,0,0,0,0,0,0,1,,,,,,,,,,,,,,,,,,,,,,,,,,0,,,,,,,,,,,,,,,,,,,,,,,,,,,,,,,,,,,,,,1,,,,,,,,,,,,,,,,,,,,,,,,,,406.2308409,None,['0'],0,[5.524676800007001],406.2308409,None,406.2308409,None,406.2308409,None,411.8242663,None,411.8242663,None,,,,,,,,,,,,,,,pilot_3,1,2019_Nov_06_1555,test_final,3.1.5,60.20103532
,,,,,,,,,,,,,,,,,,,,,,,,,,,,,,,,3,0,3,0,0,0,0,0,,,,,,,,,,,,,,,,,,,,,,,,,,,,,,,,,,,,,,,,,,,,,,,,,,,,,,,,,,,,,,,,,,,,,,,,,,,,,,,,,,,,,,,,,,,,,,,,,,,,,,,,,,,,,413.1740202,None,,,,,,,,,,,,,pilot_3,1,2019_Nov_06_1555,test_final,3.1.5,60.20103532
Practice,15,(9/3) - 2,1,,,,,,,,,,,,,,,,,,,,,,,,,,,,,3,0,3,0,1,0,1,0,0,0,0,14,,,,,,,,,,,,,,,,,,,,,,,,,,1,,,,,,,,,,,,,,,,,,,,,,,,,,,,,,,,,,,,,,1,,,,,,,,,,,,,,,,,,,,,,,,,,414.4897585,None,['1'],0,[2.6382692999904975],414.4897585,None,414.4897585,None,414.4897585,None,417.2160115,None,417.2160115,None,,,,,,,,,,,,,,,pilot_3,1,2019_Nov_06_1555,test_final,3.1.5,60.20103532
,,,,,,,,,,,,,,,,,,,,,,,,,,,,,,,,3,0,3,0,1,0,1,0,,,,,,,,,,,,,,,,,,,,,,,,,,,,,,,,,,,,,,,,,,,,,,,,,,,,,,,,,,,,,,,,,,,,,,,,,,,,,,,,,,,,,,,,,,,,,,,,,,,,,,,,,,,,,418.5688684,None,,,,,,,,,,,,,pilot_3,1,2019_Nov_06_1555,test_final,3.1.5,60.20103532
Practice,11,(5x3) - 7,8,,,,,,,,,,,,,,,,,,,,,,,,,,,,,3,0,3,0,2,0,2,0,0,0,0,10,,,,,,,,,,,,,,,,,,,,,,,,,,8,,,,,,,,,,,,,,,,,,,,,,,,,,,,,,,,,,,,,,1,,,,,,,,,,,,,,,,,,,,,,,,,,419.8837107,None,['8'],0,[2.2161425999947824],419.8837107,None,419.8837107,None,419.8837107,None,422.1917464,None,422.1917464,None,,,,,,,,,,,,,,,pilot_3,1,2019_Nov_06_1555,test_final,3.1.5,60.20103532
,,,,,,,,,,,,,,,,,,,,,,,,,,,,,,,,3,0,3,0,2,0,2,0,,,,,,,,,,,,,,,,,,,,,,,,,,,,,,,,,,,,,,,,,,,,,,,,,,,,,,,,,,,,,,,,,,,,,,,,,,,,,,,,,,,,,,,,,,,,,,,,,,,,,,,,,,,,,423.547285,None,,,,,,,,,,,,,pilot_3,1,2019_Nov_06_1555,test_final,3.1.5,60.20103532
Practice,8,(3/3) + 5,6,,,,,,,,,,,,,,,,,,,,,,,,,,,,,3,0,3,0,3,0,3,0,0,0,0,7,,,,,,,,,,,,,,,,,,,,,,,,,,6,,,,,,,,,,,,,,,,,,,,,,,,,,,,,,,,,,,,,,1,,,,,,,,,,,,,,,,,,,,,,,,,,424.8462243,None,['6'],0,[2.589062900049612],424.8462243,None,424.8462243,None,424.8462243,None,427.5079792,None,427.5079792,None,,,,,,,,,,,,,,,pilot_3,1,2019_Nov_06_1555,test_final,3.1.5,60.20103532
,,,,,,,,,,,,,,,,,,,,,,,,,,,,,,,,3,0,3,0,3,0,3,0,,,,,,,,,,,,,,,,,,,,,,,,,,,,,,,,,,,,,,,,,,,,,,,,,,,,,,,,,,,,,,,,,,,,,,,,,,,,,,,,,,,,,,,,,,,,,,,,,,,,,,,,,,,,,428.8585003,None,,,,,,,,,,,,,pilot_3,1,2019_Nov_06_1555,test_final,3.1.5,60.20103532
Practice,8,(3/3) + 5,6,,,,,,,,,,,,,,,,,,,,,,,,,,,,,3,0,3,0,4,0,4,0,0,0,0,7,,,,,,,,,,,,,,,,,,,,,,,,,,6,,,,,,,,,,,,,,,,,,,,,,,,,,,,,,,,,,,,,,1,,,,,,,,,,,,,,,,,,,,,,,,,,430.1740783,None,['6'],0,[2.876890999963507],430.1740783,None,430.1740783,None,430.1740783,None,433.1443344,None,433.1443344,None,,,,,,,,,,,,,,,pilot_3,1,2019_Nov_06_1555,test_final,3.1.5,60.20103532
,,,,,,,,,,,,,,,,,,,,,,,,,,,,,,,,3,0,3,0,4,0,4,0,,,,,,,,,,,,,,,,,,,,,,,,,,,,,,,,,,,,,,,,,,,,,,,,,,,,,,,,,,,,,,,,,,,,,,,,,,,,,,,,,,,,,,,,,,,,,,,,,,,,,,,,,,,,,434.4868329,None,,,,,,,,,,,,,pilot_3,1,2019_Nov_06_1555,test_final,3.1.5,60.20103532
,,,,,,,,,,,,,,,,,,,,,,,,,,,,,,,,3,0,3,0,,,,,,,,,,,,,,,,,,,,,,,,,,,,,,,,,,,,,,,,,,,,,,,,,,,,,,,,,,,,,,,,,,,,,,,,,,,,,,,,,,,,,,,,,,,,,,,,,,,,,,,,,,,,,,,,,,,kqstr,"['k', 'q', 's', 't', 'r']",0,"[1.2685288999928162, 2.2766768999863416, 2.637806799961254, 2.838315899949521, 3.04395719995955, 4.122177399985958]",435.7852243,None,435.7852243,None,1,KQSTR,435.7852243,None,pilot_3,1,2019_Nov_06_1555,test_final,3.1.5,60.20103532
Practice,10,(8/4) + 3,5,,,,,,,,,,,,,,,,,,,,,,,,,,,,,4,0,4,0,0,0,0,0,0,0,0,9,,,,,,,,,,,,,,,,,,,,,,,,,,5,,,,,,,,,,,,,,,,,,,,,,,,,,,,,,,,,,,,,,1,,,,,,,,,,,,,,,,,,,,,,,,,,440.4805768,None,['5'],0,[6.23455140000442],440.4805768,None,440.4805768,None,440.4805768,None,446.8037095,None,446.8037095,None,,,,,,,,,,,,,,,pilot_3,1,2019_Nov_06_1555,test_final,3.1.5,60.20103532
,,,,,,,,,,,,,,,,,,,,,,,,,,,,,,,,4,0,4,0,0,0,0,0,,,,,,,,,,,,,,,,,,,,,,,,,,,,,,,,,,,,,,,,,,,,,,,,,,,,,,,,,,,,,,,,,,,,,,,,,,,,,,,,,,,,,,,,,,,,,,,,,,,,,,,,,,,,,448.1561481,None,,,,,,,,,,,,,pilot_3,1,2019_Nov_06_1555,test_final,3.1.5,60.20103532
Practice,6,(2x6) - 8,4,,,,,,,,,,,,,,,,,,,,,,,,,,,,,4,0,4,0,1,0,1,0,0,0,0,5,,,,,,,,,,,,,,,,,,,,,,,,,,4,,,,,,,,,,,,,,,,,,,,,,,,,,,,,,,,,,,,,,1,,,,,,,,,,,,,,,,,,,,,,,,,,449.4715592,None,['4'],0,[4.806148200004827],449.4715592,None,449.4715592,None,449.4715592,None,454.3670972,None,454.3670972,None,,,,,,,,,,,,,,,pilot_3,1,2019_Nov_06_1555,test_final,3.1.5,60.20103532
,,,,,,,,,,,,,,,,,,,,,,,,,,,,,,,,4,0,4,0,1,0,1,0,,,,,,,,,,,,,,,,,,,,,,,,,,,,,,,,,,,,,,,,,,,,,,,,,,,,,,,,,,,,,,,,,,,,,,,,,,,,,,,,,,,,,,,,,,,,,,,,,,,,,,,,,,,,,455.715643,None,,,,,,,,,,,,,pilot_3,1,2019_Nov_06_1555,test_final,3.1.5,60.20103532
Practice,12,(8/2) + 4,8,,,,,,,,,,,,,,,,,,,,,,,,,,,,,4,0,4,0,2,0,2,0,0,0,0,11,,,,,,,,,,,,,,,,,,,,,,,,,,8,,,,,,,,,,,,,,,,,,,,,,,,,,,,,,,,,,,,,,1,,,,,,,,,,,,,,,,,,,,,,,,,,457.0310448,None,['8'],0,[2.124590099963825],457.0310448,None,457.0310448,None,457.0310448,None,459.2278062,None,459.2278062,None,,,,,,,,,,,,,,,pilot_3,1,2019_Nov_06_1555,test_final,3.1.5,60.20103532
,,,,,,,,,,,,,,,,,,,,,,,,,,,,,,,,4,0,4,0,2,0,2,0,,,,,,,,,,,,,,,,,,,,,,,,,,,,,,,,,,,,,,,,,,,,,,,,,,,,,,,,,,,,,,,,,,,,,,,,,,,,,,,,,,,,,,,,,,,,,,,,,,,,,,,,,,,,,460.5777396,None,,,,,,,,,,,,,pilot_3,1,2019_Nov_06_1555,test_final,3.1.5,60.20103532
Practice,10,(8/4) + 3,5,,,,,,,,,,,,,,,,,,,,,,,,,,,,,4,0,4,0,3,0,3,0,0,0,0,9,,,,,,,,,,,,,,,,,,,,,,,,,,5,,,,,,,,,,,,,,,,,,,,,,,,,,,,,,,,,,,,,,1,,,,,,,,,,,,,,,,,,,,,,,,,,461.8926231,None,['5'],0,[5.083949699997902],461.8926231,None,461.8926231,None,461.8926231,None,467.0693801,None,467.0693801,None,,,,,,,,,,,,,,,pilot_3,1,2019_Nov_06_1555,test_final,3.1.5,60.20103532
,,,,,,,,,,,,,,,,,,,,,,,,,,,,,,,,4,0,4,0,3,0,3,0,,,,,,,,,,,,,,,,,,,,,,,,,,,,,,,,,,,,,,,,,,,,,,,,,,,,,,,,,,,,,,,,,,,,,,,,,,,,,,,,,,,,,,,,,,,,,,,,,,,,,,,,,,,,,468.403331,None,,,,,,,,,,,,,pilot_3,1,2019_Nov_06_1555,test_final,3.1.5,60.20103532
Practice,8,(3/3) + 5,6,,,,,,,,,,,,,,,,,,,,,,,,,,,,,4,0,4,0,4,0,4,0,0,0,0,7,,,,,,,,,,,,,,,,,,,,,,,,,,6,,,,,,,,,,,,,,,,,,,,,,,,,,,,,,,,,,,,,,1,,,,,,,,,,,,,,,,,,,,,,,,,,469.7349995,None,['6'],0,[3.004683000035584],469.7349995,None,469.7349995,None,469.7349995,None,472.8267296,None,472.8267296,None,,,,,,,,,,,,,,,pilot_3,1,2019_Nov_06_1555,test_final,3.1.5,60.20103532
,,,,,,,,,,,,,,,,,,,,,,,,,,,,,,,,4,0,4,0,4,0,4,0,,,,,,,,,,,,,,,,,,,,,,,,,,,,,,,,,,,,,,,,,,,,,,,,,,,,,,,,,,,,,,,,,,,,,,,,,,,,,,,,,,,,,,,,,,,,,,,,,,,,,,,,,,,,,474.1808757,None,,,,,,,,,,,,,pilot_3,1,2019_Nov_06_1555,test_final,3.1.5,60.20103532
Practice,7,(4x6) - 17,7,,,,,,,,,,,,,,,,,,,,,,,,,,,,,4,0,4,0,5,0,5,0,0,0,0,6,,,,,,,,,,,,,,,,,,,,,,,,,,5,,,,,,,,,,,,,,,,,,,,,,,,,,,,,,,,,,,,,,0,,,,,,,,,,,,,,,,,,,,,,,,,,475.4797913,None,['5'],0,[5.217274800001178],475.4797913,None,475.4797913,None,475.4797913,None,480.7886537,None,480.7886537,None,,,,,,,,,,,,,,,pilot_3,1,2019_Nov_06_1555,test_final,3.1.5,60.20103532
Practice,4,(4x4) - 14,2,,,,,,,,,,,,,,,,,,,,,,,,,,,,,4,0,4,0,5,0,5,0,0,1,1,3,,,,,,,,,,,,,,,,,,,,,,,,,,2,,,,,,,,,,,,,,,,,,,,,,,,,,,,,,,,,,,,,,1,,,,,,,,,,,,,,,,,,,,,,,,,,482.106532,None,['2'],0,[2.6203882999834605],482.106532,None,482.106532,None,482.106532,None,484.7978838,None,484.7978838,None,,,,,,,,,,,,,,,pilot_3,1,2019_Nov_06_1555,test_final,3.1.5,60.20103532
,,,,,,,,,,,,,,,,,,,,,,,,,,,,,,,,4,0,4,0,5,0,5,0,,,,,,,,,,,,,,,,,,,,,,,,,,,,,,,,,,,,,,,,,,,,,,,,,,,,,,,,,,,,,,,,,,,,,,,,,,,,,,,,,,,,,,,,,,,,,,,,,,,,,,,,,,,,,486.1026153,None,,,,,,,,,,,,,pilot_3,1,2019_Nov_06_1555,test_final,3.1.5,60.20103532
,,,,,,,,,,,,,,,,,,,,,,,,,,,,,,,,4,0,4,0,,,,,,,,,,,,,,,,,,,,,,,,,,,,,,,,,,,,,,,,,,,,,,,,,,,,,,,,,,,,,,,,,,,,,,,,,,,,,,,,,,,,,,,,,,,,,,,,,,,,,,,,,,,,,,,,,,,xzrvlj,"['x', 'z', 'r', 'v', 'l', 'j']",0,"[1.6774850999936461, 2.974788699997589, 4.773368800000753, 5.1371203000308014, 5.318750299979001, 6.133934399986174, 6.581176000006963]",487.417897,None,487.417897,None,1,XZRVLJ,487.417897,None,pilot_3,1,2019_Nov_06_1555,test_final,3.1.5,60.20103532
Practice,12,(8/2) + 4,8,,,,,,,,,,,,,,,,,,,,,,,,,,,,,5,0,5,0,0,0,0,0,0,0,0,11,,,,,,,,,,,,,,,,,,,,,,,,,,8,,,,,,,,,,,,,,,,,,,,,,,,,,,,,,,,,,,,,,1,,,,,,,,,,,,,,,,,,,,,,,,,,494.5948218,None,['8'],0,[3.4623648999840952],494.5948218,None,494.5948218,None,494.5948218,None,498.1518647,None,498.1518647,None,,,,,,,,,,,,,,,pilot_3,1,2019_Nov_06_1555,test_final,3.1.5,60.20103532
,,,,,,,,,,,,,,,,,,,,,,,,,,,,,,,,5,0,5,0,0,0,0,0,,,,,,,,,,,,,,,,,,,,,,,,,,,,,,,,,,,,,,,,,,,,,,,,,,,,,,,,,,,,,,,,,,,,,,,,,,,,,,,,,,,,,,,,,,,,,,,,,,,,,,,,,,,,,499.4727161,None,,,,,,,,,,,,,pilot_3,1,2019_Nov_06_1555,test_final,3.1.5,60.20103532
Practice,2,(1/1) - 1,0,,,,,,,,,,,,,,,,,,,,,,,,,,,,,5,0,5,0,1,0,1,0,0,0,0,1,,,,,,,,,,,,,,,,,,,,,,,,,,0,,,,,,,,,,,,,,,,,,,,,,,,,,,,,,,,,,,,,,1,,,,,,,,,,,,,,,,,,,,,,,,,,500.8043237,None,['0'],0,[2.7261151999700814],500.8043237,None,500.8043237,None,500.8043237,None,503.6251909,None,503.6251909,None,,,,,,,,,,,,,,,pilot_3,1,2019_Nov_06_1555,test_final,3.1.5,60.20103532
,,,,,,,,,,,,,,,,,,,,,,,,,,,,,,,,5,0,5,0,1,0,1,0,,,,,,,,,,,,,,,,,,,,,,,,,,,,,,,,,,,,,,,,,,,,,,,,,,,,,,,,,,,,,,,,,,,,,,,,,,,,,,,,,,,,,,,,,,,,,,,,,,,,,,,,,,,,,504.9671316,None,,,,,,,,,,,,,pilot_3,1,2019_Nov_06_1555,test_final,3.1.5,60.20103532
Practice,9,(4/2) + 5,7,,,,,,,,,,,,,,,,,,,,,,,,,,,,,5,0,5,0,2,0,2,0,0,0,0,8,,,,,,,,,,,,,,,,,,,,,,,,,,7,,,,,,,,,,,,,,,,,,,,,,,,,,,,,,,,,,,,,,1,,,,,,,,,,,,,,,,,,,,,,,,,,506.2494959,None,['7'],0,[2.4625326999812387],506.2494959,None,506.2494959,None,506.2494959,None,508.8095156,None,508.8095156,None,,,,,,,,,,,,,,,pilot_3,1,2019_Nov_06_1555,test_final,3.1.5,60.20103532
,,,,,,,,,,,,,,,,,,,,,,,,,,,,,,,,5,0,5,0,2,0,2,0,,,,,,,,,,,,,,,,,,,,,,,,,,,,,,,,,,,,,,,,,,,,,,,,,,,,,,,,,,,,,,,,,,,,,,,,,,,,,,,,,,,,,,,,,,,,,,,,,,,,,,,,,,,,,510.1452807,None,,,,,,,,,,,,,pilot_3,1,2019_Nov_06_1555,test_final,3.1.5,60.20103532
Practice,14,(6/3) + 4 ,6,,,,,,,,,,,,,,,,,,,,,,,,,,,,,5,0,5,0,3,0,3,0,0,0,0,13,,,,,,,,,,,,,,,,,,,,,,,,,,6,,,,,,,,,,,,,,,,,,,,,,,,,,,,,,,,,,,,,,1,,,,,,,,,,,,,,,,,,,,,,,,,,511.444416,None,['6'],0,[5.847818200010806],511.444416,None,511.444416,None,511.444416,None,517.3987983,None,517.3987983,None,,,,,,,,,,,,,,,pilot_3,1,2019_Nov_06_1555,test_final,3.1.5,60.20103532
,,,,,,,,,,,,,,,,,,,,,,,,,,,,,,,,5,0,5,0,3,0,3,0,,,,,,,,,,,,,,,,,,,,,,,,,,,,,,,,,,,,,,,,,,,,,,,,,,,,,,,,,,,,,,,,,,,,,,,,,,,,,,,,,,,,,,,,,,,,,,,,,,,,,,,,,,,,,518.7372026,None,,,,,,,,,,,,,pilot_3,1,2019_Nov_06_1555,test_final,3.1.5,60.20103532
Practice,7,(4x6) - 17,7,,,,,,,,,,,,,,,,,,,,,,,,,,,,,5,0,5,0,4,0,4,0,0,0,0,6,,,,,,,,,,,,,,,,,,,,,,,,,,7,,,,,,,,,,,,,,,,,,,,,,,,,,,,,,,,,,,,,,1,,,,,,,,,,,,,,,,,,,,,,,,,,520.0526547,None,['7'],0,[11.231270399992354],520.0526547,None,520.0526547,None,520.0526547,None,531.3856478,None,531.3856478,None,,,,,,,,,,,,,,,pilot_3,1,2019_Nov_06_1555,test_final,3.1.5,60.20103532
,,,,,,,,,,,,,,,,,,,,,,,,,,,,,,,,5,0,5,0,4,0,4,0,,,,,,,,,,,,,,,,,,,,,,,,,,,,,,,,,,,,,,,,,,,,,,,,,,,,,,,,,,,,,,,,,,,,,,,,,,,,,,,,,,,,,,,,,,,,,,,,,,,,,,,,,,,,,532.7234063,None,,,,,,,,,,,,,pilot_3,1,2019_Nov_06_1555,test_final,3.1.5,60.20103532
Practice,11,(5x3) - 7,8,,,,,,,,,,,,,,,,,,,,,,,,,,,,,5,0,5,0,5,0,5,0,0,0,0,10,,,,,,,,,,,,,,,,,,,,,,,,,,8,,,,,,,,,,,,,,,,,,,,,,,,,,,,,,,,,,,,,,1,,,,,,,,,,,,,,,,,,,,,,,,,,534.0222902,None,['8'],0,[10.099867700017057],534.0222902,None,534.0222902,None,534.0222902,None,544.2118435,None,544.2118435,None,,,,,,,,,,,,,,,pilot_3,1,2019_Nov_06_1555,test_final,3.1.5,60.20103532
,,,,,,,,,,,,,,,,,,,,,,,,,,,,,,,,5,0,5,0,5,0,5,0,,,,,,,,,,,,,,,,,,,,,,,,,,,,,,,,,,,,,,,,,,,,,,,,,,,,,,,,,,,,,,,,,,,,,,,,,,,,,,,,,,,,,,,,,,,,,,,,,,,,,,,,,,,,,545.5276031,None,,,,,,,,,,,,,pilot_3,1,2019_Nov_06_1555,test_final,3.1.5,60.20103532
Practice,1,(1x2) + 1,3,,,,,,,,,,,,,,,,,,,,,,,,,,,,,5,0,5,0,6,0,6,0,0,0,0,0,,,,,,,,,,,,,,,,,,,,,,,,,,3,,,,,,,,,,,,,,,,,,,,,,,,,,,,,,,,,,,,,,1,,,,,,,,,,,,,,,,,,,,,,,,,,546.8595903,None,['3'],0,[6.6516069999779575],546.8595903,None,546.8595903,None,546.8595903,None,553.6152863,None,553.6152863,None,,,,,,,,,,,,,,,pilot_3,1,2019_Nov_06_1555,test_final,3.1.5,60.20103532
,,,,,,,,,,,,,,,,,,,,,,,,,,,,,,,,5,0,5,0,6,0,6,0,,,,,,,,,,,,,,,,,,,,,,,,,,,,,,,,,,,,,,,,,,,,,,,,,,,,,,,,,,,,,,,,,,,,,,,,,,,,,,,,,,,,,,,,,,,,,,,,,,,,,,,,,,,,,554.9350489,None,,,,,,,,,,,,,pilot_3,1,2019_Nov_06_1555,test_final,3.1.5,60.20103532
,,,,,,,,,,,,,,,,,,,,,,,,,,,,,,,,5,0,5,0,,,,,,,,,,,,,,,,,,,,,,,,,,,,,,,,,,,,,,,,,,,,,,,,,,,,,,,,,,,,,,,,,,,,,,,,,,,,,,,,,,,,,,,,,,,,,,,,,,,,,,,,,,,,,,,,,,,qktjlvh,"['q', 'k', 't', 'j', 'l', 'v', 'h']",0,"[1.59984819998499, 1.9249871999491006, 2.2726245999801904, 2.60125639999751, 3.3062691999948584, 3.6865914999507368, 4.025806799996644, 5.289220799983013]",556.2338489,None,556.2338489,None,1,QKTJLVH,556.2338489,None,pilot_3,1,2019_Nov_06_1555,test_final,3.1.5,60.20103532
Practice,15,(9/3) - 2,1,,,,,,,,,,,,,,,,,,,,,,,,,,,,,6,0,6,0,0,0,0,0,0,0,0,14,,,,,,,,,,,,,,,,,,,,,,,,,,1,,,,,,,,,,,,,,,,,,,,,,,,,,,,,,,,,,,,,,1,,,,,,,,,,,,,,,,,,,,,,,,,,562.0947841,None,['1'],0,[5.504613499972038],562.0947841,None,562.0947841,None,562.0947841,None,567.7037789,None,567.7037789,None,,,,,,,,,,,,,,,pilot_3,1,2019_Nov_06_1555,test_final,3.1.5,60.20103532
,,,,,,,,,,,,,,,,,,,,,,,,,,,,,,,,6,0,6,0,0,0,0,0,,,,,,,,,,,,,,,,,,,,,,,,,,,,,,,,,,,,,,,,,,,,,,,,,,,,,,,,,,,,,,,,,,,,,,,,,,,,,,,,,,,,,,,,,,,,,,,,,,,,,,,,,,,,,569.0211734,None,,,,,,,,,,,,,pilot_3,1,2019_Nov_06_1555,test_final,3.1.5,60.20103532
Practice,9,(4/2) + 5,7,,,,,,,,,,,,,,,,,,,,,,,,,,,,,6,0,6,0,1,0,1,0,0,0,0,8,,,,,,,,,,,,,,,,,,,,,,,,,,7,,,,,,,,,,,,,,,,,,,,,,,,,,,,,,,,,,,,,,1,,,,,,,,,,,,,,,,,,,,,,,,,,570.3364234,None,['7'],0,[2.2126288000144996],570.3364234,None,570.3364234,None,570.3364234,None,572.6457468,None,572.6457468,None,,,,,,,,,,,,,,,pilot_3,1,2019_Nov_06_1555,test_final,3.1.5,60.20103532
,,,,,,,,,,,,,,,,,,,,,,,,,,,,,,,,6,0,6,0,1,0,1,0,,,,,,,,,,,,,,,,,,,,,,,,,,,,,,,,,,,,,,,,,,,,,,,,,,,,,,,,,,,,,,,,,,,,,,,,,,,,,,,,,,,,,,,,,,,,,,,,,,,,,,,,,,,,,573.9828817,None,,,,,,,,,,,,,pilot_3,1,2019_Nov_06_1555,test_final,3.1.5,60.20103532
Practice,5,(3/3) + 2,3,,,,,,,,,,,,,,,,,,,,,,,,,,,,,6,0,6,0,2,0,2,0,0,0,0,4,,,,,,,,,,,,,,,,,,,,,,,,,,3,,,,,,,,,,,,,,,,,,,,,,,,,,,,,,,,,,,,,,1,,,,,,,,,,,,,,,,,,,,,,,,,,575.2815289,None,['3'],0,[2.116440700017847],575.2815289,None,575.2815289,None,575.2815289,None,577.4893476,None,577.4893476,None,,,,,,,,,,,,,,,pilot_3,1,2019_Nov_06_1555,test_final,3.1.5,60.20103532
,,,,,,,,,,,,,,,,,,,,,,,,,,,,,,,,6,0,6,0,2,0,2,0,,,,,,,,,,,,,,,,,,,,,,,,,,,,,,,,,,,,,,,,,,,,,,,,,,,,,,,,,,,,,,,,,,,,,,,,,,,,,,,,,,,,,,,,,,,,,,,,,,,,,,,,,,,,,578.8283153,None,,,,,,,,,,,,,pilot_3,1,2019_Nov_06_1555,test_final,3.1.5,60.20103532
Practice,15,(9/3) - 2,1,,,,,,,,,,,,,,,,,,,,,,,,,,,,,6,0,6,0,3,0,3,0,0,0,0,14,,,,,,,,,,,,,,,,,,,,,,,,,,1,,,,,,,,,,,,,,,,,,,,,,,,,,,,,,,,,,,,,,1,,,,,,,,,,,,,,,,,,,,,,,,,,580.1440004,None,['1'],0,[3.8351789000444114],580.1440004,None,580.1440004,None,580.1440004,None,584.0815635,None,584.0815635,None,,,,,,,,,,,,,,,pilot_3,1,2019_Nov_06_1555,test_final,3.1.5,60.20103532
,,,,,,,,,,,,,,,,,,,,,,,,,,,,,,,,6,0,6,0,3,0,3,0,,,,,,,,,,,,,,,,,,,,,,,,,,,,,,,,,,,,,,,,,,,,,,,,,,,,,,,,,,,,,,,,,,,,,,,,,,,,,,,,,,,,,,,,,,,,,,,,,,,,,,,,,,,,,585.4217858,None,,,,,,,,,,,,,pilot_3,1,2019_Nov_06_1555,test_final,3.1.5,60.20103532
Practice,4,(4x4) - 14,2,,,,,,,,,,,,,,,,,,,,,,,,,,,,,6,0,6,0,4,0,4,0,0,0,0,3,,,,,,,,,,,,,,,,,,,,,,,,,,2,,,,,,,,,,,,,,,,,,,,,,,,,,,,,,,,,,,,,,1,,,,,,,,,,,,,,,,,,,,,,,,,,586.7709132,None,['2'],0,[5.629371699993499],586.7709132,None,586.7709132,None,586.7709132,None,592.5146243,None,592.5146243,None,,,,,,,,,,,,,,,pilot_3,1,2019_Nov_06_1555,test_final,3.1.5,60.20103532
,,,,,,,,,,,,,,,,,,,,,,,,,,,,,,,,6,0,6,0,4,0,4,0,,,,,,,,,,,,,,,,,,,,,,,,,,,,,,,,,,,,,,,,,,,,,,,,,,,,,,,,,,,,,,,,,,,,,,,,,,,,,,,,,,,,,,,,,,,,,,,,,,,,,,,,,,,,,593.8302007,None,,,,,,,,,,,,,pilot_3,1,2019_Nov_06_1555,test_final,3.1.5,60.20103532
Practice,1,(1x2) + 1,3,,,,,,,,,,,,,,,,,,,,,,,,,,,,,6,0,6,0,5,0,5,0,0,0,0,0,,,,,,,,,,,,,,,,,,,,,,,,,,3,,,,,,,,,,,,,,,,,,,,,,,,,,,,,,,,,,,,,,1,,,,,,,,,,,,,,,,,,,,,,,,,,595.1625498,None,['3'],0,[6.386449199984781],595.1625498,None,595.1625498,None,595.1625498,None,601.6492374,None,601.6492374,None,,,,,,,,,,,,,,,pilot_3,1,2019_Nov_06_1555,test_final,3.1.5,60.20103532
,,,,,,,,,,,,,,,,,,,,,,,,,,,,,,,,6,0,6,0,5,0,5,0,,,,,,,,,,,,,,,,,,,,,,,,,,,,,,,,,,,,,,,,,,,,,,,,,,,,,,,,,,,,,,,,,,,,,,,,,,,,,,,,,,,,,,,,,,,,,,,,,,,,,,,,,,,,,602.9880553,None,,,,,,,,,,,,,pilot_3,1,2019_Nov_06_1555,test_final,3.1.5,60.20103532
Practice,8,(3/3) + 5,6,,,,,,,,,,,,,,,,,,,,,,,,,,,,,6,0,6,0,6,0,6,0,0,0,0,7,,,,,,,,,,,,,,,,,,,,,,,,,,6,,,,,,,,,,,,,,,,,,,,,,,,,,,,,,,,,,,,,,1,,,,,,,,,,,,,,,,,,,,,,,,,,604.2867689,None,['6'],0,[5.39107030001469],604.2867689,None,604.2867689,None,604.2867689,None,609.7773655,None,609.7773655,None,,,,,,,,,,,,,,,pilot_3,1,2019_Nov_06_1555,test_final,3.1.5,60.20103532
,,,,,,,,,,,,,,,,,,,,,,,,,,,,,,,,6,0,6,0,6,0,6,0,,,,,,,,,,,,,,,,,,,,,,,,,,,,,,,,,,,,,,,,,,,,,,,,,,,,,,,,,,,,,,,,,,,,,,,,,,,,,,,,,,,,,,,,,,,,,,,,,,,,,,,,,,,,,611.0967425,None,,,,,,,,,,,,,pilot_3,1,2019_Nov_06_1555,test_final,3.1.5,60.20103532
Practice,4,(4x4) - 14,2,,,,,,,,,,,,,,,,,,,,,,,,,,,,,6,0,6,0,7,0,7,0,0,0,0,3,,,,,,,,,,,,,,,,,,,,,,,,,,2,,,,,,,,,,,,,,,,,,,,,,,,,,,,,,,,,,,,,,1,,,,,,,,,,,,,,,,,,,,,,,,,,612.4120679,None,['2'],0,[8.889936199993826],612.4120679,None,612.4120679,None,612.4120679,None,621.3977052,None,621.3977052,None,,,,,,,,,,,,,,,pilot_3,1,2019_Nov_06_1555,test_final,3.1.5,60.20103532
,,,,,,,,,,,,,,,,,,,,,,,,,,,,,,,,6,0,6,0,7,0,7,0,,,,,,,,,,,,,,,,,,,,,,,,,,,,,,,,,,,,,,,,,,,,,,,,,,,,,,,,,,,,,,,,,,,,,,,,,,,,,,,,,,,,,,,,,,,,,,,,,,,,,,,,,,,,,622.7351711,None,,,,,,,,,,,,,pilot_3,1,2019_Nov_06_1555,test_final,3.1.5,60.20103532
,,,,,,,,,,,,,,,,,,,,,,,,,,,,,,,,6,0,6,0,,,,,,,,,,,,,,,,,,,,,,,,,,,,,,,,,,,,,,,,,,,,,,,,,,,,,,,,,,,,,,,,,,,,,,,,,,,,,,,,,,,,,,,,,,,,,,,,,,,,,,,,,,,,,,,,,,,rslkqjhz,"['r', 's', 'l', 'k', 'q', 'j', 'h', 'z']",0,"[0.7493735000025481, 1.2310178999905474, 2.1932570000062697, 2.7108499000314623, 3.688778200012166, 5.181653500010725, 8.596789300034288, 9.097871600009967, 9.392943600018043, 9.710172799997963, 9.9477228000178, 10.321018600021489, 11.564351800014265]",624.0177145,None,624.0177145,None,1,RSLKQJHZ,624.0177145,None,pilot_3,1,2019_Nov_06_1555,test_final,3.1.5,60.20103532
Practice,11,(5x3) - 7,8,,,,,,,,,,,,,,,,,,,,,,,,,,,,,7,0,7,0,0,0,0,0,0,0,0,10,,,,,,,,,,,,,,,,,,,,,,,,,,8,,,,,,,,,,,,,,,,,,,,,,,,,,,,,,,,,,,,,,1,,,,,,,,,,,,,,,,,,,,,,,,,,636.1720779,None,['8'],0,[3.9090033999527805],636.1720779,None,636.1720779,None,636.1720779,None,640.1776235,None,640.1776235,None,,,,,,,,,,,,,,,pilot_3,1,2019_Nov_06_1555,test_final,3.1.5,60.20103532
,,,,,,,,,,,,,,,,,,,,,,,,,,,,,,,,7,0,7,0,0,0,0,0,,,,,,,,,,,,,,,,,,,,,,,,,,,,,,,,,,,,,,,,,,,,,,,,,,,,,,,,,,,,,,,,,,,,,,,,,,,,,,,,,,,,,,,,,,,,,,,,,,,,,,,,,,,,,641.5000083,None,,,,,,,,,,,,,pilot_3,1,2019_Nov_06_1555,test_final,3.1.5,60.20103532
Practice,1,(1x2) + 1,3,,,,,,,,,,,,,,,,,,,,,,,,,,,,,7,0,7,0,1,0,1,0,0,0,0,0,,,,,,,,,,,,,,,,,,,,,,,,,,3,,,,,,,,,,,,,,,,,,,,,,,,,,,,,,,,,,,,,,1,,,,,,,,,,,,,,,,,,,,,,,,,,642.8323167,None,['3'],0,[3.4556269999593496],642.8323167,None,642.8323167,None,642.8323167,None,646.3891246,None,646.3891246,None,,,,,,,,,,,,,,,pilot_3,1,2019_Nov_06_1555,test_final,3.1.5,60.20103532
,,,,,,,,,,,,,,,,,,,,,,,,,,,,,,,,7,0,7,0,1,0,1,0,,,,,,,,,,,,,,,,,,,,,,,,,,,,,,,,,,,,,,,,,,,,,,,,,,,,,,,,,,,,,,,,,,,,,,,,,,,,,,,,,,,,,,,,,,,,,,,,,,,,,,,,,,,,,647.7275402,None,,,,,,,,,,,,,pilot_3,1,2019_Nov_06_1555,test_final,3.1.5,60.20103532
Practice,15,(9/3) - 2,1,,,,,,,,,,,,,,,,,,,,,,,,,,,,,7,0,7,0,2,0,2,0,0,0,0,14,,,,,,,,,,,,,,,,,,,,,,,,,,1,,,,,,,,,,,,,,,,,,,,,,,,,,,,,,,,,,,,,,1,,,,,,,,,,,,,,,,,,,,,,,,,,649.0427748,None,['1'],0,[3.2158596999943256],649.0427748,None,649.0427748,None,649.0427748,None,652.3616937,None,652.3616937,None,,,,,,,,,,,,,,,pilot_3,1,2019_Nov_06_1555,test_final,3.1.5,60.20103532
,,,,,,,,,,,,,,,,,,,,,,,,,,,,,,,,7,0,7,0,2,0,2,0,,,,,,,,,,,,,,,,,,,,,,,,,,,,,,,,,,,,,,,,,,,,,,,,,,,,,,,,,,,,,,,,,,,,,,,,,,,,,,,,,,,,,,,,,,,,,,,,,,,,,,,,,,,,,653.7048002,None,,,,,,,,,,,,,pilot_3,1,2019_Nov_06_1555,test_final,3.1.5,60.20103532
Practice,9,(4/2) + 5,7,,,,,,,,,,,,,,,,,,,,,,,,,,,,,7,0,7,0,3,0,3,0,0,0,0,8,,,,,,,,,,,,,,,,,,,,,,,,,,7,,,,,,,,,,,,,,,,,,,,,,,,,,,,,,,,,,,,,,1,,,,,,,,,,,,,,,,,,,,,,,,,,655.0203716,None,['7'],0,[4.17746930004796],655.0203716,None,655.0203716,None,655.0203716,None,659.2916046,None,659.2916046,None,,,,,,,,,,,,,,,pilot_3,1,2019_Nov_06_1555,test_final,3.1.5,60.20103532
,,,,,,,,,,,,,,,,,,,,,,,,,,,,,,,,7,0,7,0,3,0,3,0,,,,,,,,,,,,,,,,,,,,,,,,,,,,,,,,,,,,,,,,,,,,,,,,,,,,,,,,,,,,,,,,,,,,,,,,,,,,,,,,,,,,,,,,,,,,,,,,,,,,,,,,,,,,,660.6313969,None,,,,,,,,,,,,,pilot_3,1,2019_Nov_06_1555,test_final,3.1.5,60.20103532
Practice,15,(9/3) - 2,1,,,,,,,,,,,,,,,,,,,,,,,,,,,,,7,0,7,0,4,0,4,0,0,0,0,14,,,,,,,,,,,,,,,,,,,,,,,,,,1,,,,,,,,,,,,,,,,,,,,,,,,,,,,,,,,,,,,,,1,,,,,,,,,,,,,,,,,,,,,,,,,,661.9301212,None,['1'],0,[7.679833100002725],661.9301212,None,661.9301212,None,661.9301212,None,669.7150419,None,669.7150419,None,,,,,,,,,,,,,,,pilot_3,1,2019_Nov_06_1555,test_final,3.1.5,60.20103532
,,,,,,,,,,,,,,,,,,,,,,,,,,,,,,,,7,0,7,0,4,0,4,0,,,,,,,,,,,,,,,,,,,,,,,,,,,,,,,,,,,,,,,,,,,,,,,,,,,,,,,,,,,,,,,,,,,,,,,,,,,,,,,,,,,,,,,,,,,,,,,,,,,,,,,,,,,,,671.0377704,None,,,,,,,,,,,,,pilot_3,1,2019_Nov_06_1555,test_final,3.1.5,60.20103532
Practice,3,(7x2) - 5,9,,,,,,,,,,,,,,,,,,,,,,,,,,,,,7,0,7,0,5,0,5,0,0,0,0,2,,,,,,,,,,,,,,,,,,,,,,,,,,9,,,,,,,,,,,,,,,,,,,,,,,,,,,,,,,,,,,,,,1,,,,,,,,,,,,,,,,,,,,,,,,,,672.3699197,None,['9'],0,[29.368293199979234],672.3699197,None,672.3699197,None,672.3699197,None,701.8403117,None,701.8403117,None,,,,,,,,,,,,,,,pilot_3,1,2019_Nov_06_1555,test_final,3.1.5,60.20103532
,,,,,,,,,,,,,,,,,,,,,,,,,,,,,,,,7,0,7,0,5,0,5,0,,,,,,,,,,,,,,,,,,,,,,,,,,,,,,,,,,,,,,,,,,,,,,,,,,,,,,,,,,,,,,,,,,,,,,,,,,,,,,,,,,,,,,,,,,,,,,,,,,,,,,,,,,,,,703.1729249,None,,,,,,,,,,,,,pilot_3,1,2019_Nov_06_1555,test_final,3.1.5,60.20103532
Practice,3,(7x2) - 5,9,,,,,,,,,,,,,,,,,,,,,,,,,,,,,7,0,7,0,6,0,6,0,0,0,0,2,,,,,,,,,,,,,,,,,,,,,,,,,,9,,,,,,,,,,,,,,,,,,,,,,,,,,,,,,,,,,,,,,1,,,,,,,,,,,,,,,,,,,,,,,,,,704.488249,None,['9'],0,[12.654054400045425],704.488249,None,704.488249,None,704.488249,None,717.2365357,None,717.2365357,None,,,,,,,,,,,,,,,pilot_3,1,2019_Nov_06_1555,test_final,3.1.5,60.20103532
,,,,,,,,,,,,,,,,,,,,,,,,,,,,,,,,7,0,7,0,6,0,6,0,,,,,,,,,,,,,,,,,,,,,,,,,,,,,,,,,,,,,,,,,,,,,,,,,,,,,,,,,,,,,,,,,,,,,,,,,,,,,,,,,,,,,,,,,,,,,,,,,,,,,,,,,,,,,718.5744596,None,,,,,,,,,,,,,pilot_3,1,2019_Nov_06_1555,test_final,3.1.5,60.20103532
Practice,6,(2x6) - 8,4,,,,,,,,,,,,,,,,,,,,,,,,,,,,,7,0,7,0,7,0,7,0,0,0,0,5,,,,,,,,,,,,,,,,,,,,,,,,,,4,,,,,,,,,,,,,,,,,,,,,,,,,,,,,,,,,,,,,,1,,,,,,,,,,,,,,,,,,,,,,,,,,719.8896482,None,['4'],0,[12.191567000001669],719.8896482,None,719.8896482,None,719.8896482,None,732.1758377,None,732.1758377,None,,,,,,,,,,,,,,,pilot_3,1,2019_Nov_06_1555,test_final,3.1.5,60.20103532
,,,,,,,,,,,,,,,,,,,,,,,,,,,,,,,,7,0,7,0,7,0,7,0,,,,,,,,,,,,,,,,,,,,,,,,,,,,,,,,,,,,,,,,,,,,,,,,,,,,,,,,,,,,,,,,,,,,,,,,,,,,,,,,,,,,,,,,,,,,,,,,,,,,,,,,,,,,,733.4933647,None,,,,,,,,,,,,,pilot_3,1,2019_Nov_06_1555,test_final,3.1.5,60.20103532
Practice,7,(4x6) - 17,7,,,,,,,,,,,,,,,,,,,,,,,,,,,,,7,0,7,0,8,0,8,0,0,0,0,6,,,,,,,,,,,,,,,,,,,,,,,,,,7,,,,,,,,,,,,,,,,,,,,,,,,,,,,,,,,,,,,,,1,,,,,,,,,,,,,,,,,,,,,,,,,,734.8251339,None,['7'],0,[20.42804010002874],734.8251339,None,734.8251339,None,734.8251339,None,755.3495831,None,755.3495831,None,,,,,,,,,,,,,,,pilot_3,1,2019_Nov_06_1555,test_final,3.1.5,60.20103532
,,,,,,,,,,,,,,,,,,,,,,,,,,,,,,,,7,0,7,0,8,0,8,0,,,,,,,,,,,,,,,,,,,,,,,,,,,,,,,,,,,,,,,,,,,,,,,,,,,,,,,,,,,,,,,,,,,,,,,,,,,,,,,,,,,,,,,,,,,,,,,,,,,,,,,,,,,,,756.6703006,None,,,,,,,,,,,,,pilot_3,1,2019_Nov_06_1555,test_final,3.1.5,60.20103532
,,,,,,,,,,,,,,,,,,,,,,,,,,,,,,,,7,0,7,0,,,,,,,,,,,,,,,,,,,,,,,,,,,,,,,,,,,,,,,,,,,,,,,,,,,,,,,,,,,,,,,,,,,,,,,,,,,,,,,,,,,,,,,,,,,,,,,,,,,,,,,,,,,,,,,,,,,qszljrhnv,"['q', 's', 'z', 'l', 'j', 'r', 'h', 'n', 'v']",0,"[1.2933061000076123, 1.6994780999957584, 2.1674550999887288, 2.587712400010787, 3.055915599979926, 3.3543241000152193, 4.039026900019962, 4.9207568999845535, 5.274303900019731, 6.134856599965133]",757.9692591,None,757.9692591,None,0,ZSQJRLHNV,757.9692591,None,pilot_3,1,2019_Nov_06_1555,test_final,3.1.5,60.20103532
Practice,6,(2x6) - 8,4,,,,,,,,,,,,,,,,,,,,,,,,,,,,,8,0,8,0,0,0,0,0,0,0,0,5,,,,,,,,,,,,,,,,,,,,,,,,,,4,,,,,,,,,,,,,,,,,,,,,,,,,,,,,,,,,,,,,,1,,,,,,,,,,,,,,,,,,,,,,,,,,764.6961246,None,['4'],0,[10.815489800006617],764.6961246,None,764.6961246,None,764.6961246,None,775.6099515,None,775.6099515,None,,,,,,,,,,,,,,,pilot_3,1,2019_Nov_06_1555,test_final,3.1.5,60.20103532
,,,,,,,,,,,,,,,,,,,,,,,,,,,,,,,,8,0,8,0,0,0,0,0,,,,,,,,,,,,,,,,,,,,,,,,,,,,,,,,,,,,,,,,,,,,,,,,,,,,,,,,,,,,,,,,,,,,,,,,,,,,,,,,,,,,,,,,,,,,,,,,,,,,,,,,,,,,,776.9335974,None,,,,,,,,,,,,,pilot_3,1,2019_Nov_06_1555,test_final,3.1.5,60.20103532
Practice,4,(4x4) - 14,2,,,,,,,,,,,,,,,,,,,,,,,,,,,,,8,0,8,0,1,0,1,0,0,0,0,3,,,,,,,,,,,,,,,,,,,,,,,,,,2,,,,,,,,,,,,,,,,,,,,,,,,,,,,,,,,,,,,,,1,,,,,,,,,,,,,,,,,,,,,,,,,,778.2662891,None,['2'],0,[3.1038331000017934],778.2662891,None,778.2662891,None,778.2662891,None,781.4698578,None,781.4698578,None,,,,,,,,,,,,,,,pilot_3,1,2019_Nov_06_1555,test_final,3.1.5,60.20103532
,,,,,,,,,,,,,,,,,,,,,,,,,,,,,,,,8,0,8,0,1,0,1,0,,,,,,,,,,,,,,,,,,,,,,,,,,,,,,,,,,,,,,,,,,,,,,,,,,,,,,,,,,,,,,,,,,,,,,,,,,,,,,,,,,,,,,,,,,,,,,,,,,,,,,,,,,,,,782.7948484,None,,,,,,,,,,,,,pilot_3,1,2019_Nov_06_1555,test_final,3.1.5,60.20103532
Practice,15,(9/3) - 2,1,,,,,,,,,,,,,,,,,,,,,,,,,,,,,8,0,8,0,2,0,2,0,0,0,0,14,,,,,,,,,,,,,,,,,,,,,,,,,,1,,,,,,,,,,,,,,,,,,,,,,,,,,,,,,,,,,,,,,1,,,,,,,,,,,,,,,,,,,,,,,,,,784.1270327,None,['1'],0,[3.9644627000088803],784.1270327,None,784.1270327,None,784.1270327,None,788.1978512,None,788.1978512,None,,,,,,,,,,,,,,,pilot_3,1,2019_Nov_06_1555,test_final,3.1.5,60.20103532
,,,,,,,,,,,,,,,,,,,,,,,,,,,,,,,,8,0,8,0,2,0,2,0,,,,,,,,,,,,,,,,,,,,,,,,,,,,,,,,,,,,,,,,,,,,,,,,,,,,,,,,,,,,,,,,,,,,,,,,,,,,,,,,,,,,,,,,,,,,,,,,,,,,,,,,,,,,,789.5382778,None,,,,,,,,,,,,,pilot_3,1,2019_Nov_06_1555,test_final,3.1.5,60.20103532
Practice,6,(2x6) - 8,4,,,,,,,,,,,,,,,,,,,,,,,,,,,,,8,0,8,0,3,0,3,0,0,0,0,5,,,,,,,,,,,,,,,,,,,,,,,,,,4,,,,,,,,,,,,,,,,,,,,,,,,,,,,,,,,,,,,,,1,,,,,,,,,,,,,,,,,,,,,,,,,,790.8537783,None,['4'],0,[12.638950900000054],790.8537783,None,790.8537783,None,790.8537783,None,803.5867091,None,803.5867091,None,,,,,,,,,,,,,,,pilot_3,1,2019_Nov_06_1555,test_final,3.1.5,60.20103532
,,,,,,,,,,,,,,,,,,,,,,,,,,,,,,,,8,0,8,0,3,0,3,0,,,,,,,,,,,,,,,,,,,,,,,,,,,,,,,,,,,,,,,,,,,,,,,,,,,,,,,,,,,,,,,,,,,,,,,,,,,,,,,,,,,,,,,,,,,,,,,,,,,,,,,,,,,,,804.9231296,None,,,,,,,,,,,,,pilot_3,1,2019_Nov_06_1555,test_final,3.1.5,60.20103532
Practice,5,(3/3) + 2,3,,,,,,,,,,,,,,,,,,,,,,,,,,,,,8,0,8,0,4,0,4,0,0,0,0,4,,,,,,,,,,,,,,,,,,,,,,,,,,3,,,,,,,,,,,,,,,,,,,,,,,,,,,,,,,,,,,,,,1,,,,,,,,,,,,,,,,,,,,,,,,,,806.2385343,None,['3'],0,[3.8415828999713995],806.2385343,None,806.2385343,None,806.2385343,None,810.1731204,None,810.1731204,None,,,,,,,,,,,,,,,pilot_3,1,2019_Nov_06_1555,test_final,3.1.5,60.20103532
,,,,,,,,,,,,,,,,,,,,,,,,,,,,,,,,8,0,8,0,4,0,4,0,,,,,,,,,,,,,,,,,,,,,,,,,,,,,,,,,,,,,,,,,,,,,,,,,,,,,,,,,,,,,,,,,,,,,,,,,,,,,,,,,,,,,,,,,,,,,,,,,,,,,,,,,,,,,811.5164675,None,,,,,,,,,,,,,pilot_3,1,2019_Nov_06_1555,test_final,3.1.5,60.20103532
Practice,11,(5x3) - 7,8,,,,,,,,,,,,,,,,,,,,,,,,,,,,,8,0,8,0,5,0,5,0,0,0,0,10,,,,,,,,,,,,,,,,,,,,,,,,,,8,,,,,,,,,,,,,,,,,,,,,,,,,,,,,,,,,,,,,,1,,,,,,,,,,,,,,,,,,,,,,,,,,812.7988435,None,['8'],0,[6.829331700049806],812.7988435,None,812.7988435,None,812.7988435,None,819.7219056,None,819.7219056,None,,,,,,,,,,,,,,,pilot_3,1,2019_Nov_06_1555,test_final,3.1.5,60.20103532
,,,,,,,,,,,,,,,,,,,,,,,,,,,,,,,,8,0,8,0,5,0,5,0,,,,,,,,,,,,,,,,,,,,,,,,,,,,,,,,,,,,,,,,,,,,,,,,,,,,,,,,,,,,,,,,,,,,,,,,,,,,,,,,,,,,,,,,,,,,,,,,,,,,,,,,,,,,,821.0402976,None,,,,,,,,,,,,,pilot_3,1,2019_Nov_06_1555,test_final,3.1.5,60.20103532
Practice,3,(7x2) - 5,9,,,,,,,,,,,,,,,,,,,,,,,,,,,,,8,0,8,0,6,0,6,0,0,0,0,2,,,,,,,,,,,,,,,,,,,,,,,,,,9,,,,,,,,,,,,,,,,,,,,,,,,,,,,,,,,,,,,,,1,,,,,,,,,,,,,,,,,,,,,,,,,,822.3726972,None,['9'],0,[6.881482999946456],822.3726972,None,822.3726972,None,822.3726972,None,829.3620425,None,829.3620425,None,,,,,,,,,,,,,,,pilot_3,1,2019_Nov_06_1555,test_final,3.1.5,60.20103532
,,,,,,,,,,,,,,,,,,,,,,,,,,,,,,,,8,0,8,0,6,0,6,0,,,,,,,,,,,,,,,,,,,,,,,,,,,,,,,,,,,,,,,,,,,,,,,,,,,,,,,,,,,,,,,,,,,,,,,,,,,,,,,,,,,,,,,,,,,,,,,,,,,,,,,,,,,,,830.6808808,None,,,,,,,,,,,,,pilot_3,1,2019_Nov_06_1555,test_final,3.1.5,60.20103532
Practice,4,(4x4) - 14,2,,,,,,,,,,,,,,,,,,,,,,,,,,,,,8,0,8,0,7,0,7,0,0,0,0,3,,,,,,,,,,,,,,,,,,,,,,,,,,2,,,,,,,,,,,,,,,,,,,,,,,,,,,,,,,,,,,,,,1,,,,,,,,,,,,,,,,,,,,,,,,,,831.9963601,None,['2'],0,[8.862467700033449],831.9963601,None,831.9963601,None,831.9963601,None,840.9638072,None,840.9638072,None,,,,,,,,,,,,,,,pilot_3,1,2019_Nov_06_1555,test_final,3.1.5,60.20103532
,,,,,,,,,,,,,,,,,,,,,,,,,,,,,,,,8,0,8,0,7,0,7,0,,,,,,,,,,,,,,,,,,,,,,,,,,,,,,,,,,,,,,,,,,,,,,,,,,,,,,,,,,,,,,,,,,,,,,,,,,,,,,,,,,,,,,,,,,,,,,,,,,,,,,,,,,,,,842.2864822,None,,,,,,,,,,,,,pilot_3,1,2019_Nov_06_1555,test_final,3.1.5,60.20103532
Practice,7,(4x6) - 17,7,,,,,,,,,,,,,,,,,,,,,,,,,,,,,8,0,8,0,8,0,8,0,0,0,0,6,,,,,,,,,,,,,,,,,,,,,,,,,,7,,,,,,,,,,,,,,,,,,,,,,,,,,,,,,,,,,,,,,1,,,,,,,,,,,,,,,,,,,,,,,,,,843.618592,None,['7'],0,[15.285306200035848],843.618592,None,843.618592,None,843.618592,None,858.9843573,None,858.9843573,None,,,,,,,,,,,,,,,pilot_3,1,2019_Nov_06_1555,test_final,3.1.5,60.20103532
,,,,,,,,,,,,,,,,,,,,,,,,,,,,,,,,8,0,8,0,8,0,8,0,,,,,,,,,,,,,,,,,,,,,,,,,,,,,,,,,,,,,,,,,,,,,,,,,,,,,,,,,,,,,,,,,,,,,,,,,,,,,,,,,,,,,,,,,,,,,,,,,,,,,,,,,,,,,860.3021352,None,,,,,,,,,,,,,pilot_3,1,2019_Nov_06_1555,test_final,3.1.5,60.20103532
,,,,,,,,,,,,,,,,,,,,,,,,,,,,,,,,8,0,8,0,,,,,,,,,,,,,,,,,,,,,,,,,,,,,,,,,,,,,,,,,,,,,,,,,,,,,,,,,,,,,,,,,,,,,,,,,,,,,,,,,,,,,,,,,,,,,,,,,,,,,,,,,,,,,,,,,,,svzhknrlj,"['s', 'v', 'z', 'h', 'k', 'n', 'r', 'l', 'j']",0,"[2.7049887999892235, 3.473149699973874, 3.9826010999968275, 4.333816899976227, 4.898337299993727, 5.388822600012645, 5.8074673999799415, 6.629410199995618, 8.274546900007408, 11.14120339998044]",861.6014137,None,861.6014137,None,1,SVZHKNRLJ,861.6014137,None,pilot_3,1,2019_Nov_06_1555,test_final,3.1.5,60.20103532
Practice,6,(2x6) - 8,4,,,,,,,,,,,,,,,,,,,,,,,,,,,,,9,0,9,0,0,0,0,0,0,0,0,5,,,,,,,,,,,,,,,,,,,,,,,,,,4,,,,,,,,,,,,,,,,,,,,,,,,,,,,,,,,,,,,,,1,,,,,,,,,,,,,,,,,,,,,,,,,,873.3395574,None,['4'],0,[4.952718699991237],873.3395574,None,873.3395574,None,873.3395574,None,878.3955465,None,878.3955465,None,,,,,,,,,,,,,,,pilot_3,1,2019_Nov_06_1555,test_final,3.1.5,60.20103532
,,,,,,,,,,,,,,,,,,,,,,,,,,,,,,,,9,0,9,0,0,0,0,0,,,,,,,,,,,,,,,,,,,,,,,,,,,,,,,,,,,,,,,,,,,,,,,,,,,,,,,,,,,,,,,,,,,,,,,,,,,,,,,,,,,,,,,,,,,,,,,,,,,,,,,,,,,,,879.7164463,None,,,,,,,,,,,,,pilot_3,1,2019_Nov_06_1555,test_final,3.1.5,60.20103532
Practice,4,(4x4) - 14,2,,,,,,,,,,,,,,,,,,,,,,,,,,,,,9,0,9,0,1,0,1,0,0,0,0,3,,,,,,,,,,,,,,,,,,,,,,,,,,2,,,,,,,,,,,,,,,,,,,,,,,,,,,,,,,,,,,,,,1,,,,,,,,,,,,,,,,,,,,,,,,,,881.0486824,None,['2'],0,[1.8914599000127055],881.0486824,None,881.0486824,None,881.0486824,None,883.0438862,None,883.0438862,None,,,,,,,,,,,,,,,pilot_3,1,2019_Nov_06_1555,test_final,3.1.5,60.20103532
,,,,,,,,,,,,,,,,,,,,,,,,,,,,,,,,9,0,9,0,1,0,1,0,,,,,,,,,,,,,,,,,,,,,,,,,,,,,,,,,,,,,,,,,,,,,,,,,,,,,,,,,,,,,,,,,,,,,,,,,,,,,,,,,,,,,,,,,,,,,,,,,,,,,,,,,,,,,884.3786315,None,,,,,,,,,,,,,pilot_3,1,2019_Nov_06_1555,test_final,3.1.5,60.20103532
Practice,11,(5x3) - 7,8,,,,,,,,,,,,,,,,,,,,,,,,,,,,,9,0,9,0,2,0,2,0,0,0,0,10,,,,,,,,,,,,,,,,,,,,,,,,,,8,,,,,,,,,,,,,,,,,,,,,,,,,,,,,,,,,,,,,,1,,,,,,,,,,,,,,,,,,,,,,,,,,885.6939447,None,['8'],0,[4.488472299999557],885.6939447,None,885.6939447,None,885.6939447,None,890.2821249,None,890.2821249,None,,,,,,,,,,,,,,,pilot_3,1,2019_Nov_06_1555,test_final,3.1.5,60.20103532
,,,,,,,,,,,,,,,,,,,,,,,,,,,,,,,,9,0,9,0,2,0,2,0,,,,,,,,,,,,,,,,,,,,,,,,,,,,,,,,,,,,,,,,,,,,,,,,,,,,,,,,,,,,,,,,,,,,,,,,,,,,,,,,,,,,,,,,,,,,,,,,,,,,,,,,,,,,,891.6048448,None,,,,,,,,,,,,,pilot_3,1,2019_Nov_06_1555,test_final,3.1.5,60.20103532
Practice,1,(1x2) + 1,3,,,,,,,,,,,,,,,,,,,,,,,,,,,,,9,0,9,0,3,0,3,0,0,0,0,0,,,,,,,,,,,,,,,,,,,,,,,,,,3,,,,,,,,,,,,,,,,,,,,,,,,,,,,,,,,,,,,,,1,,,,,,,,,,,,,,,,,,,,,,,,,,892.9368048,None,['3'],0,[1.7524033000227064],892.9368048,None,892.9368048,None,892.9368048,None,894.7904707,None,894.7904707,None,,,,,,,,,,,,,,,pilot_3,1,2019_Nov_06_1555,test_final,3.1.5,60.20103532
,,,,,,,,,,,,,,,,,,,,,,,,,,,,,,,,9,0,9,0,3,0,3,0,,,,,,,,,,,,,,,,,,,,,,,,,,,,,,,,,,,,,,,,,,,,,,,,,,,,,,,,,,,,,,,,,,,,,,,,,,,,,,,,,,,,,,,,,,,,,,,,,,,,,,,,,,,,,896.1337074,None,,,,,,,,,,,,,pilot_3,1,2019_Nov_06_1555,test_final,3.1.5,60.20103532
Practice,5,(3/3) + 2,3,,,,,,,,,,,,,,,,,,,,,,,,,,,,,9,0,9,0,4,0,4,0,0,0,0,4,,,,,,,,,,,,,,,,,,,,,,,,,,3,,,,,,,,,,,,,,,,,,,,,,,,,,,,,,,,,,,,,,1,,,,,,,,,,,,,,,,,,,,,,,,,,897.4490657,None,['3'],0,[4.860869799973443],897.4490657,None,897.4490657,None,897.4490657,None,902.407617,None,902.407617,None,,,,,,,,,,,,,,,pilot_3,1,2019_Nov_06_1555,test_final,3.1.5,60.20103532
,,,,,,,,,,,,,,,,,,,,,,,,,,,,,,,,9,0,9,0,4,0,4,0,,,,,,,,,,,,,,,,,,,,,,,,,,,,,,,,,,,,,,,,,,,,,,,,,,,,,,,,,,,,,,,,,,,,,,,,,,,,,,,,,,,,,,,,,,,,,,,,,,,,,,,,,,,,,903.7430266,None,,,,,,,,,,,,,pilot_3,1,2019_Nov_06_1555,test_final,3.1.5,60.20103532
Practice,15,(9/3) - 2,1,,,,,,,,,,,,,,,,,,,,,,,,,,,,,9,0,9,0,5,0,5,0,0,0,0,14,,,,,,,,,,,,,,,,,,,,,,,,,,1,,,,,,,,,,,,,,,,,,,,,,,,,,,,,,,,,,,,,,1,,,,,,,,,,,,,,,,,,,,,,,,,,905.0580028,None,['1'],0,[4.347911999968346],905.0580028,None,905.0580028,None,905.0580028,None,909.499984,None,909.499984,None,,,,,,,,,,,,,,,pilot_3,1,2019_Nov_06_1555,test_final,3.1.5,60.20103532
,,,,,,,,,,,,,,,,,,,,,,,,,,,,,,,,9,0,9,0,5,0,5,0,,,,,,,,,,,,,,,,,,,,,,,,,,,,,,,,,,,,,,,,,,,,,,,,,,,,,,,,,,,,,,,,,,,,,,,,,,,,,,,,,,,,,,,,,,,,,,,,,,,,,,,,,,,,,910.8364076,None,,,,,,,,,,,,,pilot_3,1,2019_Nov_06_1555,test_final,3.1.5,60.20103532
Practice,11,(5x3) - 7,8,,,,,,,,,,,,,,,,,,,,,,,,,,,,,9,0,9,0,6,0,6,0,0,0,0,10,,,,,,,,,,,,,,,,,,,,,,,,,,8,,,,,,,,,,,,,,,,,,,,,,,,,,,,,,,,,,,,,,1,,,,,,,,,,,,,,,,,,,,,,,,,,912.1346518,None,['8'],0,[10.170548100024462],912.1346518,None,912.1346518,None,912.1346518,None,922.3965136,None,922.3965136,None,,,,,,,,,,,,,,,pilot_3,1,2019_Nov_06_1555,test_final,3.1.5,60.20103532
,,,,,,,,,,,,,,,,,,,,,,,,,,,,,,,,9,0,9,0,6,0,6,0,,,,,,,,,,,,,,,,,,,,,,,,,,,,,,,,,,,,,,,,,,,,,,,,,,,,,,,,,,,,,,,,,,,,,,,,,,,,,,,,,,,,,,,,,,,,,,,,,,,,,,,,,,,,,923.739975,None,,,,,,,,,,,,,pilot_3,1,2019_Nov_06_1555,test_final,3.1.5,60.20103532
Practice,5,(3/3) + 2,3,,,,,,,,,,,,,,,,,,,,,,,,,,,,,9,0,9,0,7,0,7,0,0,0,0,4,,,,,,,,,,,,,,,,,,,,,,,,,,3,,,,,,,,,,,,,,,,,,,,,,,,,,,,,,,,,,,,,,1,,,,,,,,,,,,,,,,,,,,,,,,,,925.0383853,None,['3'],0,[17.045287299959455],925.0383853,None,925.0383853,None,925.0383853,None,942.1684989,None,942.1684989,None,,,,,,,,,,,,,,,pilot_3,1,2019_Nov_06_1555,test_final,3.1.5,60.20103532
,,,,,,,,,,,,,,,,,,,,,,,,,,,,,,,,9,0,9,0,7,0,7,0,,,,,,,,,,,,,,,,,,,,,,,,,,,,,,,,,,,,,,,,,,,,,,,,,,,,,,,,,,,,,,,,,,,,,,,,,,,,,,,,,,,,,,,,,,,,,,,,,,,,,,,,,,,,,943.5037664,None,,,,,,,,,,,,,pilot_3,1,2019_Nov_06_1555,test_final,3.1.5,60.20103532
Practice,10,(8/4) + 3,5,,,,,,,,,,,,,,,,,,,,,,,,,,,,,9,0,9,0,8,0,8,0,0,0,0,9,,,,,,,,,,,,,,,,,,,,,,,,,,5,,,,,,,,,,,,,,,,,,,,,,,,,,,,,,,,,,,,,,1,,,,,,,,,,,,,,,,,,,,,,,,,,944.8193723,None,['5'],0,[8.429091600002721],944.8193723,None,944.8193723,None,944.8193723,None,953.3500486,None,953.3500486,None,,,,,,,,,,,,,,,pilot_3,1,2019_Nov_06_1555,test_final,3.1.5,60.20103532
,,,,,,,,,,,,,,,,,,,,,,,,,,,,,,,,9,0,9,0,8,0,8,0,,,,,,,,,,,,,,,,,,,,,,,,,,,,,,,,,,,,,,,,,,,,,,,,,,,,,,,,,,,,,,,,,,,,,,,,,,,,,,,,,,,,,,,,,,,,,,,,,,,,,,,,,,,,,954.6929196,None,,,,,,,,,,,,,pilot_3,1,2019_Nov_06_1555,test_final,3.1.5,60.20103532
Practice,5,(3/3) + 2,3,,,,,,,,,,,,,,,,,,,,,,,,,,,,,9,0,9,0,9,0,9,0,0,0,0,4,,,,,,,,,,,,,,,,,,,,,,,,,,3,,,,,,,,,,,,,,,,,,,,,,,,,,,,,,,,,,,,,,1,,,,,,,,,,,,,,,,,,,,,,,,,,956.0082625,None,['3'],0,[6.071824299986474],956.0082625,None,956.0082625,None,956.0082625,None,962.1847288,None,962.1847288,None,,,,,,,,,,,,,,,pilot_3,1,2019_Nov_06_1555,test_final,3.1.5,60.20103532
,,,,,,,,,,,,,,,,,,,,,,,,,,,,,,,,9,0,9,0,9,0,9,0,,,,,,,,,,,,,,,,,,,,,,,,,,,,,,,,,,,,,,,,,,,,,,,,,,,,,,,,,,,,,,,,,,,,,,,,,,,,,,,,,,,,,,,,,,,,,,,,,,,,,,,,,,,,,963.5174925,None,,,,,,,,,,,,,pilot_3,1,2019_Nov_06_1555,test_final,3.1.5,60.20103532
,,,,,,,,,,,,,,,,,,,,,,,,,,,,,,,,9,0,9,0,,,,,,,,,,,,,,,,,,,,,,,,,,,,,,,,,,,,,,,,,,,,,,,,,,,,,,,,,,,,,,,,,,,,,,,,,,,,,,,,,,,,,,,,,,,,,,,,,,,,,,,,,,,,,,,,,,,khrsqvltx,"['k', 'h', 'r', 's', 'q', 'v', 'l', 't', 'x']",0,"[4.089247600000817, 4.466894000011962, 4.876186100009363, 5.464643999992404, 5.928269400028512, 7.259128400008194, 7.896601099986583, 8.318348400003742, 8.859268000000156, 12.001132800010964]",964.7998852,None,964.7998852,None,0,KHRSQZVLTX,964.7998852,None,pilot_3,1,2019_Nov_06_1555,test_final,3.1.5,60.20103532
Practice,1,(1x2) + 1,3,,,,,,,,,,,,,,,,,,,,,,,,,,,,,10,0,10,0,0,0,0,0,0,0,0,0,,,,,,,,,,,,,,,,,,,,,,,,,,3,,,,,,,,,,,,,,,,,,,,,,,,,,,,,,,,,,,,,,1,,,,,,,,,,,,,,,,,,,,,,,,,,977.3870211,None,['3'],0,[2.856645399995614],977.3870211,None,977.3870211,None,977.3870211,None,980.3297589,None,980.3297589,None,,,,,,,,,,,,,,,pilot_3,1,2019_Nov_06_1555,test_final,3.1.5,60.20103532
,,,,,,,,,,,,,,,,,,,,,,,,,,,,,,,,10,0,10,0,0,0,0,0,,,,,,,,,,,,,,,,,,,,,,,,,,,,,,,,,,,,,,,,,,,,,,,,,,,,,,,,,,,,,,,,,,,,,,,,,,,,,,,,,,,,,,,,,,,,,,,,,,,,,,,,,,,,,981.6660429,None,,,,,,,,,,,,,pilot_3,1,2019_Nov_06_1555,test_final,3.1.5,60.20103532
Practice,2,(1/1) - 1,0,,,,,,,,,,,,,,,,,,,,,,,,,,,,,10,0,10,0,1,0,1,0,0,0,0,1,,,,,,,,,,,,,,,,,,,,,,,,,,0,,,,,,,,,,,,,,,,,,,,,,,,,,,,,,,,,,,,,,1,,,,,,,,,,,,,,,,,,,,,,,,,,982.9818057,None,['0'],0,[3.2234029000392184],982.9818057,None,982.9818057,None,982.9818057,None,986.3052716,None,986.3052716,None,,,,,,,,,,,,,,,pilot_3,1,2019_Nov_06_1555,test_final,3.1.5,60.20103532
,,,,,,,,,,,,,,,,,,,,,,,,,,,,,,,,10,0,10,0,1,0,1,0,,,,,,,,,,,,,,,,,,,,,,,,,,,,,,,,,,,,,,,,,,,,,,,,,,,,,,,,,,,,,,,,,,,,,,,,,,,,,,,,,,,,,,,,,,,,,,,,,,,,,,,,,,,,,987.6273003,None,,,,,,,,,,,,,pilot_3,1,2019_Nov_06_1555,test_final,3.1.5,60.20103532
Practice,7,(4x6) - 17,7,,,,,,,,,,,,,,,,,,,,,,,,,,,,,10,0,10,0,2,0,2,0,0,0,0,6,,,,,,,,,,,,,,,,,,,,,,,,,,7,,,,,,,,,,,,,,,,,,,,,,,,,,,,,,,,,,,,,,1,,,,,,,,,,,,,,,,,,,,,,,,,,988.9594656,None,['7'],0,[2.3396204999880865],988.9594656,None,988.9594656,None,988.9594656,None,991.3944327,None,991.3944327,None,,,,,,,,,,,,,,,pilot_3,1,2019_Nov_06_1555,test_final,3.1.5,60.20103532
,,,,,,,,,,,,,,,,,,,,,,,,,,,,,,,,10,0,10,0,2,0,2,0,,,,,,,,,,,,,,,,,,,,,,,,,,,,,,,,,,,,,,,,,,,,,,,,,,,,,,,,,,,,,,,,,,,,,,,,,,,,,,,,,,,,,,,,,,,,,,,,,,,,,,,,,,,,,992.7226439,None,,,,,,,,,,,,,pilot_3,1,2019_Nov_06_1555,test_final,3.1.5,60.20103532
Practice,6,(2x6) - 8,4,,,,,,,,,,,,,,,,,,,,,,,,,,,,,10,0,10,0,3,0,3,0,0,0,0,5,,,,,,,,,,,,,,,,,,,,,,,,,,4,,,,,,,,,,,,,,,,,,,,,,,,,,,,,,,,,,,,,,1,,,,,,,,,,,,,,,,,,,,,,,,,,994.0377591,None,['4'],0,[8.287803200015333],994.0377591,None,994.0377591,None,994.0377591,None,1002.411419,None,1002.411419,None,,,,,,,,,,,,,,,pilot_3,1,2019_Nov_06_1555,test_final,3.1.5,60.20103532
,,,,,,,,,,,,,,,,,,,,,,,,,,,,,,,,10,0,10,0,3,0,3,0,,,,,,,,,,,,,,,,,,,,,,,,,,,,,,,,,,,,,,,,,,,,,,,,,,,,,,,,,,,,,,,,,,,,,,,,,,,,,,,,,,,,,,,,,,,,,,,,,,,,,,,,,,,,,1003.744775,None,,,,,,,,,,,,,pilot_3,1,2019_Nov_06_1555,test_final,3.1.5,60.20103532
Practice,5,(3/3) + 2,3,,,,,,,,,,,,,,,,,,,,,,,,,,,,,10,0,10,0,4,0,4,0,0,0,0,4,,,,,,,,,,,,,,,,,,,,,,,,,,3,,,,,,,,,,,,,,,,,,,,,,,,,,,,,,,,,,,,,,1,,,,,,,,,,,,,,,,,,,,,,,,,,1005.043609,None,['3'],0,[1.4399518999853171],1005.043609,None,1005.043609,None,1005.043609,None,1006.587341,None,1006.587341,None,,,,,,,,,,,,,,,pilot_3,1,2019_Nov_06_1555,test_final,3.1.5,60.20103532
,,,,,,,,,,,,,,,,,,,,,,,,,,,,,,,,10,0,10,0,4,0,4,0,,,,,,,,,,,,,,,,,,,,,,,,,,,,,,,,,,,,,,,,,,,,,,,,,,,,,,,,,,,,,,,,,,,,,,,,,,,,,,,,,,,,,,,,,,,,,,,,,,,,,,,,,,,,,1007.92399,None,,,,,,,,,,,,,pilot_3,1,2019_Nov_06_1555,test_final,3.1.5,60.20103532
Practice,6,(2x6) - 8,4,,,,,,,,,,,,,,,,,,,,,,,,,,,,,10,0,10,0,5,0,5,0,0,0,0,5,,,,,,,,,,,,,,,,,,,,,,,,,,4,,,,,,,,,,,,,,,,,,,,,,,,,,,,,,,,,,,,,,1,,,,,,,,,,,,,,,,,,,,,,,,,,1009.239387,None,['4'],0,[14.655829199997243],1009.239387,None,1009.239387,None,1009.239387,None,1024.005149,None,1024.005149,None,,,,,,,,,,,,,,,pilot_3,1,2019_Nov_06_1555,test_final,3.1.5,60.20103532
,,,,,,,,,,,,,,,,,,,,,,,,,,,,,,,,10,0,10,0,5,0,5,0,,,,,,,,,,,,,,,,,,,,,,,,,,,,,,,,,,,,,,,,,,,,,,,,,,,,,,,,,,,,,,,,,,,,,,,,,,,,,,,,,,,,,,,,,,,,,,,,,,,,,,,,,,,,,1025.340014,None,,,,,,,,,,,,,pilot_3,1,2019_Nov_06_1555,test_final,3.1.5,60.20103532
Practice,8,(3/3) + 5,6,,,,,,,,,,,,,,,,,,,,,,,,,,,,,10,0,10,0,6,0,6,0,0,0,0,7,,,,,,,,,,,,,,,,,,,,,,,,,,6,,,,,,,,,,,,,,,,,,,,,,,,,,,,,,,,,,,,,,1,,,,,,,,,,,,,,,,,,,,,,,,,,1026.655394,None,['6'],0,[22.881459299998824],1026.655394,None,1026.655394,None,1026.655394,None,1049.63655,None,1049.63655,None,,,,,,,,,,,,,,,pilot_3,1,2019_Nov_06_1555,test_final,3.1.5,60.20103532
,,,,,,,,,,,,,,,,,,,,,,,,,,,,,,,,10,0,10,0,6,0,6,0,,,,,,,,,,,,,,,,,,,,,,,,,,,,,,,,,,,,,,,,,,,,,,,,,,,,,,,,,,,,,,,,,,,,,,,,,,,,,,,,,,,,,,,,,,,,,,,,,,,,,,,,,,,,,1050.981761,None,,,,,,,,,,,,,pilot_3,1,2019_Nov_06_1555,test_final,3.1.5,60.20103532
Practice,4,(4x4) - 14,2,,,,,,,,,,,,,,,,,,,,,,,,,,,,,10,0,10,0,7,0,7,0,0,0,0,3,,,,,,,,,,,,,,,,,,,,,,,,,,2,,,,,,,,,,,,,,,,,,,,,,,,,,,,,,,,,,,,,,1,,,,,,,,,,,,,,,,,,,,,,,,,,1052.280624,None,['2'],0,[6.818295699951705],1052.280624,None,1052.280624,None,1052.280624,None,1059.205548,None,1059.205548,None,,,,,,,,,,,,,,,pilot_3,1,2019_Nov_06_1555,test_final,3.1.5,60.20103532
,,,,,,,,,,,,,,,,,,,,,,,,,,,,,,,,10,0,10,0,7,0,7,0,,,,,,,,,,,,,,,,,,,,,,,,,,,,,,,,,,,,,,,,,,,,,,,,,,,,,,,,,,,,,,,,,,,,,,,,,,,,,,,,,,,,,,,,,,,,,,,,,,,,,,,,,,,,,1060.539041,None,,,,,,,,,,,,,pilot_3,1,2019_Nov_06_1555,test_final,3.1.5,60.20103532
Practice,8,(3/3) + 5,6,,,,,,,,,,,,,,,,,,,,,,,,,,,,,10,0,10,0,8,0,8,0,0,0,0,7,,,,,,,,,,,,,,,,,,,,,,,,,,6,,,,,,,,,,,,,,,,,,,,,,,,,,,,,,,,,,,,,,1,,,,,,,,,,,,,,,,,,,,,,,,,,1061.837871,None,['6'],0,[5.050732899981085],1061.837871,None,1061.837871,None,1061.837871,None,1066.996727,None,1066.996727,None,,,,,,,,,,,,,,,pilot_3,1,2019_Nov_06_1555,test_final,3.1.5,60.20103532
,,,,,,,,,,,,,,,,,,,,,,,,,,,,,,,,10,0,10,0,8,0,8,0,,,,,,,,,,,,,,,,,,,,,,,,,,,,,,,,,,,,,,,,,,,,,,,,,,,,,,,,,,,,,,,,,,,,,,,,,,,,,,,,,,,,,,,,,,,,,,,,,,,,,,,,,,,,,1068.331355,None,,,,,,,,,,,,,pilot_3,1,2019_Nov_06_1555,test_final,3.1.5,60.20103532
Practice,11,(5x3) - 7,8,,,,,,,,,,,,,,,,,,,,,,,,,,,,,10,0,10,0,9,0,9,0,0,0,0,10,,,,,,,,,,,,,,,,,,,,,,,,,,8,,,,,,,,,,,,,,,,,,,,,,,,,,,,,,,,,,,,,,1,,,,,,,,,,,,,,,,,,,,,,,,,,1069.647003,None,['8'],0,[18.371506900002714],1069.647003,None,1069.647003,None,1069.647003,None,1088.122024,None,1088.122024,None,,,,,,,,,,,,,,,pilot_3,1,2019_Nov_06_1555,test_final,3.1.5,60.20103532
,,,,,,,,,,,,,,,,,,,,,,,,,,,,,,,,10,0,10,0,9,0,9,0,,,,,,,,,,,,,,,,,,,,,,,,,,,,,,,,,,,,,,,,,,,,,,,,,,,,,,,,,,,,,,,,,,,,,,,,,,,,,,,,,,,,,,,,,,,,,,,,,,,,,,,,,,,,,1089.46069,None,,,,,,,,,,,,,pilot_3,1,2019_Nov_06_1555,test_final,3.1.5,60.20103532
,,,,,,,,,,,,,,,,,,,,,,,,,,,,,,,,10,0,10,0,,,,,,,,,,,,,,,,,,,,,,,,,,,,,,,,,,,,,,,,,,,,,,,,,,,,,,,,,,,,,,,,,,,,,,,,,,,,,,,,,,,,,,,,,,,,,,,,,,,,,,,,,,,,,,,,,,,vzxhjqksv,"['v', 'z', 'x', 'h', 'j', 'q', 'k', 's', 'v']",0,"[3.448887200036552, 4.165555500017945, 4.570953600050416, 4.9713492000009865, 5.402010600024369, 5.923451500013471, 6.892322200001217, 7.971045200014487, 9.39805180003168, 13.119082000048365]",1090.743039,None,1090.743039,None,0,VZXRHJQKST,1090.743039,None,pilot_3,1,2019_Nov_06_1555,test_final,3.1.5,60.20103532
Practice,8,(3/3) + 5,6,,,,,,,,,,,,,,,,,,,,,,,,,,,,,11,0,11,0,0,0,0,0,0,0,0,7,,,,,,,,,,,,,,,,,,,,,,,,,,6,,,,,,,,,,,,,,,,,,,,,,,,,,,,,,,,,,,,,,1,,,,,,,,,,,,,,,,,,,,,,,,,,1104.445928,None,['6'],0,[7.1908818000229076],1104.445928,None,1104.445928,None,1104.445928,None,1111.734327,None,1111.734327,None,,,,,,,,,,,,,,,pilot_3,1,2019_Nov_06_1555,test_final,3.1.5,60.20103532
,,,,,,,,,,,,,,,,,,,,,,,,,,,,,,,,11,0,11,0,0,0,0,0,,,,,,,,,,,,,,,,,,,,,,,,,,,,,,,,,,,,,,,,,,,,,,,,,,,,,,,,,,,,,,,,,,,,,,,,,,,,,,,,,,,,,,,,,,,,,,,,,,,,,,,,,,,,,1113.070904,None,,,,,,,,,,,,,pilot_3,1,2019_Nov_06_1555,test_final,3.1.5,60.20103532
Practice,11,(5x3) - 7,8,,,,,,,,,,,,,,,,,,,,,,,,,,,,,11,0,11,0,1,0,1,0,0,0,0,10,,,,,,,,,,,,,,,,,,,,,,,,,,8,,,,,,,,,,,,,,,,,,,,,,,,,,,,,,,,,,,,,,1,,,,,,,,,,,,,,,,,,,,,,,,,,1114.386372,None,['8'],0,[26.394789099984337],1114.386372,None,1114.386372,None,1114.386372,None,1140.883914,None,1140.883914,None,,,,,,,,,,,,,,,pilot_3,1,2019_Nov_06_1555,test_final,3.1.5,60.20103532
,,,,,,,,,,,,,,,,,,,,,,,,,,,,,,,,11,0,11,0,1,0,1,0,,,,,,,,,,,,,,,,,,,,,,,,,,,,,,,,,,,,,,,,,,,,,,,,,,,,,,,,,,,,,,,,,,,,,,,,,,,,,,,,,,,,,,,,,,,,,,,,,,,,,,,,,,,,,1142.225953,None,,,,,,,,,,,,,pilot_3,1,2019_Nov_06_1555,test_final,3.1.5,60.20103532
Practice,13,(3x8) - 19 ,5,,,,,,,,,,,,,,,,,,,,,,,,,,,,,11,0,11,0,2,0,2,0,0,0,0,12,,,,,,,,,,,,,,,,,,,,,,,,,,5,,,,,,,,,,,,,,,,,,,,,,,,,,,,,,,,,,,,,,1,,,,,,,,,,,,,,,,,,,,,,,,,,1143.541297,None,['5'],0,[18.937243699969258],1143.541297,None,1143.541297,None,1143.541297,None,1162.572849,None,1162.572849,None,,,,,,,,,,,,,,,pilot_3,1,2019_Nov_06_1555,test_final,3.1.5,60.20103532
,,,,,,,,,,,,,,,,,,,,,,,,,,,,,,,,11,0,11,0,2,0,2,0,,,,,,,,,,,,,,,,,,,,,,,,,,,,,,,,,,,,,,,,,,,,,,,,,,,,,,,,,,,,,,,,,,,,,,,,,,,,,,,,,,,,,,,,,,,,,,,,,,,,,,,,,,,,,1163.887781,None,,,,,,,,,,,,,pilot_3,1,2019_Nov_06_1555,test_final,3.1.5,60.20103532
Practice,6,(2x6) - 8,4,,,,,,,,,,,,,,,,,,,,,,,,,,,,,11,0,11,0,3,0,3,0,0,0,0,5,,,,,,,,,,,,,,,,,,,,,,,,,,4,,,,,,,,,,,,,,,,,,,,,,,,,,,,,,,,,,,,,,1,,,,,,,,,,,,,,,,,,,,,,,,,,1165.219669,None,['4'],0,[5.444287399994209],1165.219669,None,1165.219669,None,1165.219669,None,1170.769794,None,1170.769794,None,,,,,,,,,,,,,,,pilot_3,1,2019_Nov_06_1555,test_final,3.1.5,60.20103532
,,,,,,,,,,,,,,,,,,,,,,,,,,,,,,,,11,0,11,0,3,0,3,0,,,,,,,,,,,,,,,,,,,,,,,,,,,,,,,,,,,,,,,,,,,,,,,,,,,,,,,,,,,,,,,,,,,,,,,,,,,,,,,,,,,,,,,,,,,,,,,,,,,,,,,,,,,,,1172.096572,None,,,,,,,,,,,,,pilot_3,1,2019_Nov_06_1555,test_final,3.1.5,60.20103532
Practice,15,(9/3) - 2,1,,,,,,,,,,,,,,,,,,,,,,,,,,,,,11,0,11,0,4,0,4,0,0,0,0,14,,,,,,,,,,,,,,,,,,,,,,,,,,1,,,,,,,,,,,,,,,,,,,,,,,,,,,,,,,,,,,,,,1,,,,,,,,,,,,,,,,,,,,,,,,,,1173.395128,None,['1'],0,[1.9654384999885224],1173.395128,None,1173.395128,None,1173.395128,None,1175.453801,None,1175.453801,None,,,,,,,,,,,,,,,pilot_3,1,2019_Nov_06_1555,test_final,3.1.5,60.20103532
,,,,,,,,,,,,,,,,,,,,,,,,,,,,,,,,11,0,11,0,4,0,4,0,,,,,,,,,,,,,,,,,,,,,,,,,,,,,,,,,,,,,,,,,,,,,,,,,,,,,,,,,,,,,,,,,,,,,,,,,,,,,,,,,,,,,,,,,,,,,,,,,,,,,,,,,,,,,1176.792019,None,,,,,,,,,,,,,pilot_3,1,2019_Nov_06_1555,test_final,3.1.5,60.20103532
Practice,3,(7x2) - 5,9,,,,,,,,,,,,,,,,,,,,,,,,,,,,,11,0,11,0,5,0,5,0,0,0,0,2,,,,,,,,,,,,,,,,,,,,,,,,,,9,,,,,,,,,,,,,,,,,,,,,,,,,,,,,,,,,,,,,,1,,,,,,,,,,,,,,,,,,,,,,,,,,1178.106844,None,['9'],0,[2.263762200018391],1178.106844,None,1178.106844,None,1178.106844,None,1180.462226,None,1180.462226,None,,,,,,,,,,,,,,,pilot_3,1,2019_Nov_06_1555,test_final,3.1.5,60.20103532
,,,,,,,,,,,,,,,,,,,,,,,,,,,,,,,,11,0,11,0,5,0,5,0,,,,,,,,,,,,,,,,,,,,,,,,,,,,,,,,,,,,,,,,,,,,,,,,,,,,,,,,,,,,,,,,,,,,,,,,,,,,,,,,,,,,,,,,,,,,,,,,,,,,,,,,,,,,,1181.786847,None,,,,,,,,,,,,,pilot_3,1,2019_Nov_06_1555,test_final,3.1.5,60.20103532
Practice,4,(4x4) - 14,2,,,,,,,,,,,,,,,,,,,,,,,,,,,,,11,0,11,0,6,0,6,0,0,0,0,3,,,,,,,,,,,,,,,,,,,,,,,,,,2,,,,,,,,,,,,,,,,,,,,,,,,,,,,,,,,,,,,,,1,,,,,,,,,,,,,,,,,,,,,,,,,,1183.102421,None,['2'],0,[6.310128499986604],1183.102421,None,1183.102421,None,1183.102421,None,1189.507649,None,1189.507649,None,,,,,,,,,,,,,,,pilot_3,1,2019_Nov_06_1555,test_final,3.1.5,60.20103532
,,,,,,,,,,,,,,,,,,,,,,,,,,,,,,,,11,0,11,0,6,0,6,0,,,,,,,,,,,,,,,,,,,,,,,,,,,,,,,,,,,,,,,,,,,,,,,,,,,,,,,,,,,,,,,,,,,,,,,,,,,,,,,,,,,,,,,,,,,,,,,,,,,,,,,,,,,,,1190.844534,None,,,,,,,,,,,,,pilot_3,1,2019_Nov_06_1555,test_final,3.1.5,60.20103532
Practice,11,(5x3) - 7,8,,,,,,,,,,,,,,,,,,,,,,,,,,,,,11,0,11,0,7,0,7,0,0,0,0,10,,,,,,,,,,,,,,,,,,,,,,,,,,8,,,,,,,,,,,,,,,,,,,,,,,,,,,,,,,,,,,,,,1,,,,,,,,,,,,,,,,,,,,,,,,,,1192.160222,None,['8'],0,[5.7252578000188805],1192.160222,None,1192.160222,None,1192.160222,None,1197.98316,None,1197.98316,None,,,,,,,,,,,,,,,pilot_3,1,2019_Nov_06_1555,test_final,3.1.5,60.20103532
,,,,,,,,,,,,,,,,,,,,,,,,,,,,,,,,11,0,11,0,7,0,7,0,,,,,,,,,,,,,,,,,,,,,,,,,,,,,,,,,,,,,,,,,,,,,,,,,,,,,,,,,,,,,,,,,,,,,,,,,,,,,,,,,,,,,,,,,,,,,,,,,,,,,,,,,,,,,1199.319876,None,,,,,,,,,,,,,pilot_3,1,2019_Nov_06_1555,test_final,3.1.5,60.20103532
Practice,15,(9/3) - 2,1,,,,,,,,,,,,,,,,,,,,,,,,,,,,,11,0,11,0,8,0,8,0,0,0,0,14,,,,,,,,,,,,,,,,,,,,,,,,,,1,,,,,,,,,,,,,,,,,,,,,,,,,,,,,,,,,,,,,,1,,,,,,,,,,,,,,,,,,,,,,,,,,1200.635115,None,['1'],0,[6.46334089996526],1200.635115,None,1200.635115,None,1200.635115,None,1207.190679,None,1207.190679,None,,,,,,,,,,,,,,,pilot_3,1,2019_Nov_06_1555,test_final,3.1.5,60.20103532
,,,,,,,,,,,,,,,,,,,,,,,,,,,,,,,,11,0,11,0,8,0,8,0,,,,,,,,,,,,,,,,,,,,,,,,,,,,,,,,,,,,,,,,,,,,,,,,,,,,,,,,,,,,,,,,,,,,,,,,,,,,,,,,,,,,,,,,,,,,,,,,,,,,,,,,,,,,,1208.51026,None,,,,,,,,,,,,,pilot_3,1,2019_Nov_06_1555,test_final,3.1.5,60.20103532
Practice,1,(1x2) + 1,3,,,,,,,,,,,,,,,,,,,,,,,,,,,,,11,0,11,0,9,0,9,0,0,0,0,0,,,,,,,,,,,,,,,,,,,,,,,,,,3,,,,,,,,,,,,,,,,,,,,,,,,,,,,,,,,,,,,,,1,,,,,,,,,,,,,,,,,,,,,,,,,,1209.842858,None,['3'],0,[7.742270299990196],1209.842858,None,1209.842858,None,1209.842858,None,1217.680538,None,1217.680538,None,,,,,,,,,,,,,,,pilot_3,1,2019_Nov_06_1555,test_final,3.1.5,60.20103532
,,,,,,,,,,,,,,,,,,,,,,,,,,,,,,,,11,0,11,0,9,0,9,0,,,,,,,,,,,,,,,,,,,,,,,,,,,,,,,,,,,,,,,,,,,,,,,,,,,,,,,,,,,,,,,,,,,,,,,,,,,,,,,,,,,,,,,,,,,,,,,,,,,,,,,,,,,,,1219.017025,None,,,,,,,,,,,,,pilot_3,1,2019_Nov_06_1555,test_final,3.1.5,60.20103532
,,,,,,,,,,,,,,,,,,,,,,,,,,,,,,,,11,0,11,0,,,,,,,,,,,,,,,,,,,,,,,,,,,,,,,,,,,,,,,,,,,,,,,,,,,,,,,,,,,,,,,,,,,,,,,,,,,,,,,,,,,,,,,,,,,,,,,,,,,,,,,,,,,,,,,,,,,hksvntqxjr,"['h', 'k', 's', 'v', 'n', 't', 'q', 'x', 'j', 'r']",0,"[1.2964737000293098, 1.705061700020451, 2.123274000012316, 2.511778200045228, 2.9459830000414513, 3.39368670003023, 3.769574800040573, 4.242464500013739, 4.781234699999914, 5.446290799998678, 9.040404600033071]",1220.299393,None,1220.299393,None,1,HKSVNTQXJR,1220.299393,None,pilot_3,1,2019_Nov_06_1555,test_final,3.1.5,60.20103532
Practice,9,(4/2) + 5,7,,,,,,,,,,,,,,,,,,,,,,,,,,,,,12,0,12,0,0,0,0,0,0,0,0,8,,,,,,,,,,,,,,,,,,,,,,,,,,7,,,,,,,,,,,,,,,,,,,,,,,,,,,,,,,,,,,,,,1,,,,,,,,,,,,,,,,,,,,,,,,,,1229.906267,None,['7'],0,[5.653629700012971],1229.906267,None,1229.906267,None,1229.906267,None,1235.666518,None,1235.666518,None,,,,,,,,,,,,,,,pilot_3,1,2019_Nov_06_1555,test_final,3.1.5,60.20103532
,,,,,,,,,,,,,,,,,,,,,,,,,,,,,,,,12,0,12,0,0,0,0,0,,,,,,,,,,,,,,,,,,,,,,,,,,,,,,,,,,,,,,,,,,,,,,,,,,,,,,,,,,,,,,,,,,,,,,,,,,,,,,,,,,,,,,,,,,,,,,,,,,,,,,,,,,,,,1236.999273,None,,,,,,,,,,,,,pilot_3,1,2019_Nov_06_1555,test_final,3.1.5,60.20103532
Practice,9,(4/2) + 5,7,,,,,,,,,,,,,,,,,,,,,,,,,,,,,12,0,12,0,1,0,1,0,0,0,0,8,,,,,,,,,,,,,,,,,,,,,,,,,,7,,,,,,,,,,,,,,,,,,,,,,,,,,,,,,,,,,,,,,1,,,,,,,,,,,,,,,,,,,,,,,,,,1238.314894,None,['7'],0,[2.9455710999900475],1238.314894,None,1238.314894,None,1238.314894,None,1241.353308,None,1241.353308,None,,,,,,,,,,,,,,,pilot_3,1,2019_Nov_06_1555,test_final,3.1.5,60.20103532
,,,,,,,,,,,,,,,,,,,,,,,,,,,,,,,,12,0,12,0,1,0,1,0,,,,,,,,,,,,,,,,,,,,,,,,,,,,,,,,,,,,,,,,,,,,,,,,,,,,,,,,,,,,,,,,,,,,,,,,,,,,,,,,,,,,,,,,,,,,,,,,,,,,,,,,,,,,,1242.677148,None,,,,,,,,,,,,,pilot_3,1,2019_Nov_06_1555,test_final,3.1.5,60.20103532
Practice,2,(1/1) - 1,0,,,,,,,,,,,,,,,,,,,,,,,,,,,,,12,0,12,0,2,0,2,0,0,0,0,1,,,,,,,,,,,,,,,,,,,,,,,,,,0,,,,,,,,,,,,,,,,,,,,,,,,,,,,,,,,,,,,,,1,,,,,,,,,,,,,,,,,,,,,,,,,,1244.009163,None,['0'],0,[3.436891299963463],1244.009163,None,1244.009163,None,1244.009163,None,1247.548025,None,1247.548025,None,,,,,,,,,,,,,,,pilot_3,1,2019_Nov_06_1555,test_final,3.1.5,60.20103532
,,,,,,,,,,,,,,,,,,,,,,,,,,,,,,,,12,0,12,0,2,0,2,0,,,,,,,,,,,,,,,,,,,,,,,,,,,,,,,,,,,,,,,,,,,,,,,,,,,,,,,,,,,,,,,,,,,,,,,,,,,,,,,,,,,,,,,,,,,,,,,,,,,,,,,,,,,,,1248.887607,None,,,,,,,,,,,,,pilot_3,1,2019_Nov_06_1555,test_final,3.1.5,60.20103532
Practice,5,(3/3) + 2,3,,,,,,,,,,,,,,,,,,,,,,,,,,,,,12,0,12,0,3,0,3,0,0,0,0,4,,,,,,,,,,,,,,,,,,,,,,,,,,3,,,,,,,,,,,,,,,,,,,,,,,,,,,,,,,,,,,,,,1,,,,,,,,,,,,,,,,,,,,,,,,,,1250.202914,None,['3'],0,[2.141274699999485],1250.202914,None,1250.202914,None,1250.202914,None,1252.456262,None,1252.456262,None,,,,,,,,,,,,,,,pilot_3,1,2019_Nov_06_1555,test_final,3.1.5,60.20103532
,,,,,,,,,,,,,,,,,,,,,,,,,,,,,,,,12,0,12,0,3,0,3,0,,,,,,,,,,,,,,,,,,,,,,,,,,,,,,,,,,,,,,,,,,,,,,,,,,,,,,,,,,,,,,,,,,,,,,,,,,,,,,,,,,,,,,,,,,,,,,,,,,,,,,,,,,,,,1253.782987,None,,,,,,,,,,,,,pilot_3,1,2019_Nov_06_1555,test_final,3.1.5,60.20103532
Practice,3,(7x2) - 5,9,,,,,,,,,,,,,,,,,,,,,,,,,,,,,12,0,12,0,4,0,4,0,0,0,0,2,,,,,,,,,,,,,,,,,,,,,,,,,,9,,,,,,,,,,,,,,,,,,,,,,,,,,,,,,,,,,,,,,1,,,,,,,,,,,,,,,,,,,,,,,,,,1255.097989,None,['9'],0,[3.1031996000092477],1255.097989,None,1255.097989,None,1255.097989,None,1258.303801,None,1258.303801,None,,,,,,,,,,,,,,,pilot_3,1,2019_Nov_06_1555,test_final,3.1.5,60.20103532
,,,,,,,,,,,,,,,,,,,,,,,,,,,,,,,,12,0,12,0,4,0,4,0,,,,,,,,,,,,,,,,,,,,,,,,,,,,,,,,,,,,,,,,,,,,,,,,,,,,,,,,,,,,,,,,,,,,,,,,,,,,,,,,,,,,,,,,,,,,,,,,,,,,,,,,,,,,,1259.644022,None,,,,,,,,,,,,,pilot_3,1,2019_Nov_06_1555,test_final,3.1.5,60.20103532
Practice,12,(8/2) + 4,8,,,,,,,,,,,,,,,,,,,,,,,,,,,,,12,0,12,0,5,0,5,0,0,0,0,11,,,,,,,,,,,,,,,,,,,,,,,,,,8,,,,,,,,,,,,,,,,,,,,,,,,,,,,,,,,,,,,,,1,,,,,,,,,,,,,,,,,,,,,,,,,,1260.958843,None,['8'],0,[7.1064404000062495],1260.958843,None,1260.958843,None,1260.958843,None,1268.162028,None,1268.162028,None,,,,,,,,,,,,,,,pilot_3,1,2019_Nov_06_1555,test_final,3.1.5,60.20103532
,,,,,,,,,,,,,,,,,,,,,,,,,,,,,,,,12,0,12,0,5,0,5,0,,,,,,,,,,,,,,,,,,,,,,,,,,,,,,,,,,,,,,,,,,,,,,,,,,,,,,,,,,,,,,,,,,,,,,,,,,,,,,,,,,,,,,,,,,,,,,,,,,,,,,,,,,,,,1269.500903,None,,,,,,,,,,,,,pilot_3,1,2019_Nov_06_1555,test_final,3.1.5,60.20103532
Practice,15,(9/3) - 2,1,,,,,,,,,,,,,,,,,,,,,,,,,,,,,12,0,12,0,6,0,6,0,0,0,0,14,,,,,,,,,,,,,,,,,,,,,,,,,,1,,,,,,,,,,,,,,,,,,,,,,,,,,,,,,,,,,,,,,1,,,,,,,,,,,,,,,,,,,,,,,,,,1270.816228,None,['1'],0,[14.581436400010716],1270.816228,None,1270.816228,None,1270.816228,None,1285.495968,None,1285.495968,None,,,,,,,,,,,,,,,pilot_3,1,2019_Nov_06_1555,test_final,3.1.5,60.20103532
,,,,,,,,,,,,,,,,,,,,,,,,,,,,,,,,12,0,12,0,6,0,6,0,,,,,,,,,,,,,,,,,,,,,,,,,,,,,,,,,,,,,,,,,,,,,,,,,,,,,,,,,,,,,,,,,,,,,,,,,,,,,,,,,,,,,,,,,,,,,,,,,,,,,,,,,,,,,1286.834082,None,,,,,,,,,,,,,pilot_3,1,2019_Nov_06_1555,test_final,3.1.5,60.20103532
Practice,6,(2x6) - 8,4,,,,,,,,,,,,,,,,,,,,,,,,,,,,,12,0,12,0,7,0,7,0,0,0,0,5,,,,,,,,,,,,,,,,,,,,,,,,,,4,,,,,,,,,,,,,,,,,,,,,,,,,,,,,,,,,,,,,,1,,,,,,,,,,,,,,,,,,,,,,,,,,1288.149243,None,['4'],0,[10.673462800041307],1288.149243,None,1288.149243,None,1288.149243,None,1298.916365,None,1298.916365,None,,,,,,,,,,,,,,,pilot_3,1,2019_Nov_06_1555,test_final,3.1.5,60.20103532
,,,,,,,,,,,,,,,,,,,,,,,,,,,,,,,,12,0,12,0,7,0,7,0,,,,,,,,,,,,,,,,,,,,,,,,,,,,,,,,,,,,,,,,,,,,,,,,,,,,,,,,,,,,,,,,,,,,,,,,,,,,,,,,,,,,,,,,,,,,,,,,,,,,,,,,,,,,,1300.253971,None,,,,,,,,,,,,,pilot_3,1,2019_Nov_06_1555,test_final,3.1.5,60.20103532
Practice,10,(8/4) + 3,5,,,,,,,,,,,,,,,,,,,,,,,,,,,,,12,0,12,0,8,0,8,0,0,0,0,9,,,,,,,,,,,,,,,,,,,,,,,,,,5,,,,,,,,,,,,,,,,,,,,,,,,,,,,,,,,,,,,,,1,,,,,,,,,,,,,,,,,,,,,,,,,,1301.552712,None,['5'],0,[5.326000800007023],1301.552712,None,1301.552712,None,1301.552712,None,1306.974555,None,1306.974555,None,,,,,,,,,,,,,,,pilot_3,1,2019_Nov_06_1555,test_final,3.1.5,60.20103532
,,,,,,,,,,,,,,,,,,,,,,,,,,,,,,,,12,0,12,0,8,0,8,0,,,,,,,,,,,,,,,,,,,,,,,,,,,,,,,,,,,,,,,,,,,,,,,,,,,,,,,,,,,,,,,,,,,,,,,,,,,,,,,,,,,,,,,,,,,,,,,,,,,,,,,,,,,,,1308.313126,None,,,,,,,,,,,,,pilot_3,1,2019_Nov_06_1555,test_final,3.1.5,60.20103532
Practice,9,(4/2) + 5,7,,,,,,,,,,,,,,,,,,,,,,,,,,,,,12,0,12,0,9,0,9,0,0,0,0,8,,,,,,,,,,,,,,,,,,,,,,,,,,7,,,,,,,,,,,,,,,,,,,,,,,,,,,,,,,,,,,,,,1,,,,,,,,,,,,,,,,,,,,,,,,,,1309.627972,None,['7'],0,[1.3524929000413977],1309.627972,None,1309.627972,None,1309.627972,None,1311.088118,None,1311.088118,None,,,,,,,,,,,,,,,pilot_3,1,2019_Nov_06_1555,test_final,3.1.5,60.20103532
,,,,,,,,,,,,,,,,,,,,,,,,,,,,,,,,12,0,12,0,9,0,9,0,,,,,,,,,,,,,,,,,,,,,,,,,,,,,,,,,,,,,,,,,,,,,,,,,,,,,,,,,,,,,,,,,,,,,,,,,,,,,,,,,,,,,,,,,,,,,,,,,,,,,,,,,,,,,1312.408819,None,,,,,,,,,,,,,pilot_3,1,2019_Nov_06_1555,test_final,3.1.5,60.20103532
Practice,9,(4/2) + 5,7,,,,,,,,,,,,,,,,,,,,,,,,,,,,,12,0,12,0,10,0,10,0,0,0,0,8,,,,,,,,,,,,,,,,,,,,,,,,,,7,,,,,,,,,,,,,,,,,,,,,,,,,,,,,,,,,,,,,,1,,,,,,,,,,,,,,,,,,,,,,,,,,1313.741102,None,['7'],0,[1.555748799990397],1313.741102,None,1313.741102,None,1313.741102,None,1315.399142,None,1315.399142,None,,,,,,,,,,,,,,,pilot_3,1,2019_Nov_06_1555,test_final,3.1.5,60.20103532
