Task,Trial,Problem,Operation_answer,next_level.thisRepN,next_level.thisTrialN,next_level.thisN,next_level.thisIndex,next_letter.thisRepN,next_letter.thisTrialN,next_letter.thisN,next_letter.thisIndex,repeat_practice.thisRepN,repeat_practice.thisTrialN,repeat_practice.thisN,repeat_practice.thisIndex,trials.thisRepN,trials.thisTrialN,trials.thisN,trials.thisIndex,span_recall_prac.thisRepN,span_recall_prac.thisTrialN,span_recall_prac.thisN,span_recall_prac.thisIndex,span_size_prac.thisRepN,span_size_prac.thisTrialN,span_size_prac.thisN,span_size_prac.thisIndex,repeat_if_wrong_prac.thisRepN,repeat_if_wrong_prac.thisTrialN,repeat_if_wrong_prac.thisN,repeat_if_wrong_prac.thisIndex,span_recall.thisRepN,span_recall.thisTrialN,span_recall.thisN,span_recall.thisIndex,span_size.thisRepN,span_size.thisTrialN,span_size.thisN,span_size.thisIndex,repeat_if_wrong.thisRepN,repeat_if_wrong.thisTrialN,repeat_if_wrong.thisN,repeat_if_wrong.thisIndex,instructions_2.started,instructions_2.stopped,key_resp_4.keys,key_resp_4.rt,key_resp_4.started,key_resp_4.stopped,text_2.started,text_2.stopped,simple_recall,key_resp_5.keys,key_resp_5.rt,key_resp_5.started,key_resp_5.stopped,text_feedback.started,text_feedback.stopped,simple_recall_corr,simple_recall_corrkeys,instructions_3.started,instructions_3.stopped,instructions.started,instructions.stopped,key_resp_2.keys,key_resp_2.rt,key_resp_2.started,key_resp_2.stopped,digit_answer,operation.started,operation.stopped,key_resp.keys,key_resp.corr,key_resp.rt,key_resp.started,key_resp.stopped,operation_feedback.started,operation_feedback.stopped,instructions_8.started,instructions_8.stopped,feedback_msg.started,feedback_msg.stopped,processing_score,feedback_msg_2.started,feedback_msg_2.stopped,key_resp_3.keys,key_resp_3.rt,key_resp_3.started,key_resp_3.stopped,instructions_4.started,instructions_4.stopped,key_resp_6.keys,key_resp_6.rt,key_resp_6.started,key_resp_6.stopped,operation_3.started,operation_3.stopped,key_resp_11.keys,key_resp_11.corr,key_resp_11.rt,key_resp_11.started,key_resp_11.stopped,operation_feedback_2.started,operation_feedback_2.stopped,instructions_9.started,instructions_9.stopped,operation_correct,feedback_msg_4.started,feedback_msg_4.stopped,operation_4.started,operation_4.stopped,text_3.started,text_3.stopped,complex_recall_prac,key_resp_9.keys,key_resp_9.corr,key_resp_9.rt,key_resp_9.started,key_resp_9.stopped,text_feedback_3.started,text_feedback_3.stopped,instructions_6.started,instructions_6.stopped,complex_prac_corr,feedback_msg_3.started,feedback_msg_3.stopped,instructions_7.started,instructions_7.stopped,key_resp_10.keys,key_resp_10.rt,key_resp_10.started,key_resp_10.stopped,operation_2.started,operation_2.stopped,key_resp_7.keys,key_resp_7.corr,key_resp_7.rt,key_resp_7.started,key_resp_7.stopped,operation_feedback_3.started,operation_feedback_3.stopped,instructions_10.started,instructions_10.stopped,feedback_msg_5.started,feedback_msg_5.stopped,operation_5.started,operation_5.stopped,text.started,text.stopped,complex_recall,key_resp_8.keys,key_resp_8.corr,key_resp_8.rt,key_resp_8.started,key_resp_8.stopped,text_feedback_2.started,text_feedback_2.stopped,complex_recall_corr,complex_recall_corrkeys,instructions_5.started,instructions_5.stopped,finish.started,finish.stopped,key_resp_12.keys,key_resp_12.rt,key_resp_12.started,key_resp_12.stopped,participant,session,date,expName,psychopyVersion,frameRate,
,,,,,,,,,,,,,,,,,,,,,,,,,,,,,,,,,,,,,,,,,,,,30.568715300003532,None,space,22.891036299988627,30.568715300003532,None,,,,,,,,,,,,,,,,,,,,,,,,,,,,,,,,,,,,,,,,,,,,,,,,,,,,,,,,,,,,,,,,,,,,,,,,,,,,,,,,,,,,,,,,,,,,,,,,,,,,,,,,,,,,,,,,,,,,,,,pilot_4,001,2019_Nov_06_1712,test_final,3.1.5,60.036045650691584,
,,,,0,0,0,0,0,0,0,0,,,,,,,,,,,,,,,,,,,,,,,,,,,,,,,,,,,,,,,54.04964649997419,None,,,,,,,,,,,,,,,,,,,,,,,,,,,,,,,,,,,,,,,,,,,,,,,,,,,,,,,,,,,,,,,,,,,,,,,,,,,,,,,,,,,,,,,,,,,,,,,,,,,,,,,,,,,,,,,,,,,,,pilot_4,001,2019_Nov_06_1712,test_final,3.1.5,60.036045650691584,
,,,,0,0,0,0,1,0,1,0,,,,,,,,,,,,,,,,,,,,,,,,,,,,,,,,,,,,,,,55.31485189998057,None,,,,,,,,,,,,,,,,,,,,,,,,,,,,,,,,,,,,,,,,,,,,,,,,,,,,,,,,,,,,,,,,,,,,,,,,,,,,,,,,,,,,,,,,,,,,,,,,,,,,,,,,,,,,,,,,,,,,,pilot_4,001,2019_Nov_06_1712,test_final,3.1.5,60.036045650691584,
,,,,1,0,1,0,0,0,0,0,,,,,,,,,,,,,,,,,,,,,,,,,,,,,,,,,,,,,,,59.91029470000649,None,kz,"['k', 'z']","[1.5361454999656416, 1.8710343999555334, 2.7240913999849]",56.61372089997167,None,56.61372089997167,None,1,KZ,56.61372089997167,None,,,,,,,,,,,,,,,,,,,,,,,,,,,,,,,,,,,,,,,,,,,,,,,,,,,,,,,,,,,,,,,,,,,,,,,,,,,,,,,,,,,,,,,,,,,,,,,,,,,,,,,,,,pilot_4,001,2019_Nov_06_1712,test_final,3.1.5,60.036045650691584,
,,,,1,0,1,0,1,0,1,0,,,,,,,,,,,,,,,,,,,,,,,,,,,,,,,,,,,,,,,61.20906530000502,60.705791699991096,,,,,,,,,,,,,,,,,,,,,,,,,,,,,,,,,,,,,,,,,,,,,,,,,,,,,,,,,,,,,,,,,,,,,,,,,,,,,,,,,,,,,,,,,,,,,,,,,,,,,,,,,,,,,,,,,,,,,pilot_4,001,2019_Nov_06_1712,test_final,3.1.5,60.036045650691584,
,,,,2,0,2,0,0,0,0,0,,,,,,,,,,,,,,,,,,,,,,,,,,,,,,,,,,,,,,,66.92016159999184,None,lj,"['l', 'j']","[-1.5123969999840483, 1.587025500019081, 3.8312093000276946]",62.50743210001383,None,62.50743210001383,None,1,LJ,62.50743210001383,None,,,,,,,,,,,,,,,,,,,,,,,,,,,,,,,,,,,,,,,,,,,,,,,,,,,,,,,,,,,,,,,,,,,,,,,,,,,,,,,,,,,,,,,,,,,,,,,,,,,,,,,,,,pilot_4,001,2019_Nov_06_1712,test_final,3.1.5,60.036045650691584,
,,,,2,0,2,0,1,0,1,0,,,,,,,,,,,,,,,,,,,,,,,,,,,,,,,,,,,,,,,68.21884139999747,None,,,,,,,,,,,,,,,,,,,,,,,,,,,,,,,,,,,,,,,,,,,,,,,,,,,,,,,,,,,,,,,,,,,,,,,,,,,,,,,,,,,,,,,,,,,,,,,,,,,,,,,,,,,,,,,,,,,,,pilot_4,001,2019_Nov_06_1712,test_final,3.1.5,60.036045650691584,
,,,,2,0,2,0,2,0,2,0,,,,,,,,,,,,,,,,,,,,,,,,,,,,,,,,,,,,,,,69.51756169996224,None,,,,,,,,,,,,,,,,,,,,,,,,,,,,,,,,,,,,,,,,,,,,,,,,,,,,,,,,,,,,,,,,,,,,,,,,,,,,,,,,,,,,,,,,,,,,,,,,,,,,,,,,,,,,,,,,,,,,,pilot_4,001,2019_Nov_06_1712,test_final,3.1.5,60.036045650691584,
,,,,3,0,3,0,0,0,0,0,,,,,,,,,,,,,,,,,,,,,,,,,,,,,,,,,,,,,,,72.91420389997074,None,hnt,"['h', 'n', 't']","[0.6182783000404015, 0.8696158000384457, 1.2176717999973334, 1.526867000036873]",70.81652779999422,None,70.81652779999422,None,1,HNT,70.81652779999422,None,,,,,,,,,,,,,,,,,,,,,,,,,,,,,,,,,,,,,,,,,,,,,,,,,,,,,,,,,,,,,,,,,,,,,,,,,,,,,,,,,,,,,,,,,,,,,,,,,,,,,,,,,,pilot_4,001,2019_Nov_06_1712,test_final,3.1.5,60.036045650691584,
,,,,3,0,3,0,1,0,1,0,,,,,,,,,,,,,,,,,,,,,,,,,,,,,,,,,,,,,,,74.21318630001042,73.69821449997835,,,,,,,,,,,,,,,,,,,,,,,,,,,,,,,,,,,,,,,,,,,,,,,,,,,,,,,,,,,,,,,,,,,,,,,,,,,,,,,,,,,,,,,,,,,,,,,,,,,,,,,,,,,,,,,,,,,,,pilot_4,001,2019_Nov_06_1712,test_final,3.1.5,60.036045650691584,
,,,,3,0,3,0,2,0,2,0,,,,,,,,,,,,,,,,,,,,,,,,,,,,,,,,,,,,,,,75.51175820000935,75.0077490999829,,,,,,,,,,,,,,,,,,,,,,,,,,,,,,,,,,,,,,,,,,,,,,,,,,,,,,,,,,,,,,,,,,,,,,,,,,,,,,,,,,,,,,,,,,,,,,,,,,,,,,,,,,,,,,,,,,,,,pilot_4,001,2019_Nov_06_1712,test_final,3.1.5,60.036045650691584,
,,,,4,0,4,0,0,0,0,0,,,,,,,,,,,,,,,,,,,,,,,,,,,,,,,,,,,,,,,78.85838439996587,None,qhv,"['q', 'h', 'v']","[0.6043245000182651, 0.7807743999874219, 1.1028422000235878, 1.4746645000413992]",76.81073369999649,None,76.81073369999649,None,1,QHV,76.81073369999649,None,,,,,,,,,,,,,,,,,,,,,,,,,,,,,,,,,,,,,,,,,,,,,,,,,,,,,,,,,,,,,,,,,,,,,,,,,,,,,,,,,,,,,,,,,,,,,,,,,,,,,,,,,,pilot_4,001,2019_Nov_06_1712,test_final,3.1.5,60.036045650691584,
,,,,4,0,4,0,1,0,1,0,,,,,,,,,,,,,,,,,,,,,,,,,,,,,,,,,,,,,,,80.15709140000399,None,,,,,,,,,,,,,,,,,,,,,,,,,,,,,,,,,,,,,,,,,,,,,,,,,,,,,,,,,,,,,,,,,,,,,,,,,,,,,,,,,,,,,,,,,,,,,,,,,,,,,,,,,,,,,,,,,,,,,pilot_4,001,2019_Nov_06_1712,test_final,3.1.5,60.036045650691584,
,,,,4,0,4,0,2,0,2,0,,,,,,,,,,,,,,,,,,,,,,,,,,,,,,,,,,,,,,,81.45586119999643,None,,,,,,,,,,,,,,,,,,,,,,,,,,,,,,,,,,,,,,,,,,,,,,,,,,,,,,,,,,,,,,,,,,,,,,,,,,,,,,,,,,,,,,,,,,,,,,,,,,,,,,,,,,,,,,,,,,,,,pilot_4,001,2019_Nov_06_1712,test_final,3.1.5,60.036045650691584,
,,,,4,0,4,0,3,0,3,0,,,,,,,,,,,,,,,,,,,,,,,,,,,,,,,,,,,,,,,82.75447609997354,82.23816830001306,,,,,,,,,,,,,,,,,,,,,,,,,,,,,,,,,,,,,,,,,,,,,,,,,,,,,,,,,,,,,,,,,,,,,,,,,,,,,,,,,,,,,,,,,,,,,,,,,,,,,,,,,,,,,,,,,,,,,pilot_4,001,2019_Nov_06_1712,test_final,3.1.5,60.036045650691584,
,,,,5,0,5,0,0,0,0,0,,,,,,,,,,,,,,,,,,,,,,,,,,,,,,,,,,,,,,,86.25136280001607,None,nsqz,"['n', 's', 'q', 'z']","[0.399437099986244, 0.666855699964799, 0.9971506999572739, 1.3807659999583848, 1.6325139999971725]",84.05321669997647,None,84.05321669997647,None,1,NSQZ,84.05321669997647,None,,,,,,,,,,,,,,,,,,,,,,,,,,,,,,,,,,,,,,,,,,,,,,,,,,,,,,,,,,,,,,,,,,,,,,,,,,,,,,,,,,,,,,,,,,,,,,,,,,,,,,,,,,pilot_4,001,2019_Nov_06_1712,test_final,3.1.5,60.036045650691584,
,,,,5,0,5,0,1,0,1,0,,,,,,,,,,,,,,,,,,,,,,,,,,,,,,,,,,,,,,,87.54996279999614,None,,,,,,,,,,,,,,,,,,,,,,,,,,,,,,,,,,,,,,,,,,,,,,,,,,,,,,,,,,,,,,,,,,,,,,,,,,,,,,,,,,,,,,,,,,,,,,,,,,,,,,,,,,,,,,,,,,,,,pilot_4,001,2019_Nov_06_1712,test_final,3.1.5,60.036045650691584,
,,,,5,0,5,0,2,0,2,0,,,,,,,,,,,,,,,,,,,,,,,,,,,,,,,,,,,,,,,88.84863819996826,None,,,,,,,,,,,,,,,,,,,,,,,,,,,,,,,,,,,,,,,,,,,,,,,,,,,,,,,,,,,,,,,,,,,,,,,,,,,,,,,,,,,,,,,,,,,,,,,,,,,,,,,,,,,,,,,,,,,,,pilot_4,001,2019_Nov_06_1712,test_final,3.1.5,60.036045650691584,
,,,,5,0,5,0,3,0,3,0,,,,,,,,,,,,,,,,,,,,,,,,,,,,,,,,,,,,,,,90.14743000001181,89.63255569996545,,,,,,,,,,,,,,,,,,,,,,,,,,,,,,,,,,,,,,,,,,,,,,,,,,,,,,,,,,,,,,,,,,,,,,,,,,,,,,,,,,,,,,,,,,,,,,,,,,,,,,,,,,,,,,,,,,,,,pilot_4,001,2019_Nov_06_1712,test_final,3.1.5,60.036045650691584,
,,,,6,0,6,0,0,0,0,0,,,,,,,,,,,,,,,,,,,,,,,,,,,,,,,,,,,,,,,94.07679459999781,None,tzrj,"['t', 'z', 'r', 'j']","[0.7318422000389546, 1.0400477000512183, 1.339751800056547, 1.6514112000004388, 2.0509549000416882]",91.4459667999763,None,91.4459667999763,None,1,TZRJ,91.4459667999763,None,,,,,,,,,,,,,,,,,,,,,,,,,,,,,,,,,,,,,,,,,,,,,,,,,,,,,,,,,,,,,,,,,,,,,,,,,,,,,,,,,,,,,,,,,,,,,,,,,,,,,,,,,,pilot_4,001,2019_Nov_06_1712,test_final,3.1.5,60.036045650691584,
,,,,6,0,6,0,1,0,1,0,,,,,,,,,,,,,,,,,,,,,,,,,,,,,,,,,,,,,,,95.3755867999862,None,,,,,,,,,,,,,,,,,,,,,,,,,,,,,,,,,,,,,,,,,,,,,,,,,,,,,,,,,,,,,,,,,,,,,,,,,,,,,,,,,,,,,,,,,,,,,,,,,,,,,,,,,,,,,,,,,,,,,pilot_4,001,2019_Nov_06_1712,test_final,3.1.5,60.036045650691584,
,,,,6,0,6,0,2,0,2,0,,,,,,,,,,,,,,,,,,,,,,,,,,,,,,,,,,,,,,,96.67433000000892,None,,,,,,,,,,,,,,,,,,,,,,,,,,,,,,,,,,,,,,,,,,,,,,,,,,,,,,,,,,,,,,,,,,,,,,,,,,,,,,,,,,,,,,,,,,,,,,,,,,,,,,,,,,,,,,,,,,,,,pilot_4,001,2019_Nov_06_1712,test_final,3.1.5,60.036045650691584,
,,,,6,0,6,0,3,0,3,0,,,,,,,,,,,,,,,,,,,,,,,,,,,,,,,,,,,,,,,97.97289869998349,97.45813119999366,,,,,,,,,,,,,,,,,,,,,,,,,,,,,,,,,,,,,,,,,,,,,,,,,,,,,,,,,,,,,,,,,,,,,,,,,,,,,,,,,,,,,,,,,,,,,,,,,,,,,,,,,,,,,,,,,,,,,pilot_4,001,2019_Nov_06_1712,test_final,3.1.5,60.036045650691584,
,,,,6,0,6,0,4,0,4,0,,,,,,,,,,,,,,,,,,,,,,,,,,,,,,,,,,,,,,,99.27187469997443,98.75664959999267,,,,,,,,,,,,,,,,,,,,,,,,,,,,,,,,,,,,,,,,,,,,,,,,,,,,,,,,,,,,,,,,,,,,,,,,,,,,,,,,,,,,,,,,,,,,,,,,,,,,,,,,,,,,,,,,,,,,,pilot_4,001,2019_Nov_06_1712,test_final,3.1.5,60.036045650691584,
,,,,7,0,7,0,0,0,0,0,,,,,,,,,,,,,,,,,,,,,,,,,,,,,,,,,,,,,,,103.58429490000708,None,rhtvk,"['r', 'h', 't', 'v', 'k']","[0.6128314000088722, 0.9648263000417501, 1.4132396000204608, 1.8223797000246122, 2.0821792000206187, 2.422574700030964]",100.57074779999675,None,100.57074779999675,None,1,RHTVK,100.57074779999675,None,,,,,,,,,,,,,,,,,,,,,,,,,,,,,,,,,,,,,,,,,,,,,,,,,,,,,,,,,,,,,,,,,,,,,,,,,,,,,,,,,,,,,,,,,,,,,,,,,,,,,,,,,,pilot_4,001,2019_Nov_06_1712,test_final,3.1.5,60.036045650691584,
,,,,7,0,7,0,1,0,1,0,,,,,,,,,,,,,,,,,,,,,,,,,,,,,,,,,,,,,,,104.8828526000143,None,,,,,,,,,,,,,,,,,,,,,,,,,,,,,,,,,,,,,,,,,,,,,,,,,,,,,,,,,,,,,,,,,,,,,,,,,,,,,,,,,,,,,,,,,,,,,,,,,,,,,,,,,,,,,,,,,,,,,pilot_4,001,2019_Nov_06_1712,test_final,3.1.5,60.036045650691584,
,,,,7,0,7,0,2,0,2,0,,,,,,,,,,,,,,,,,,,,,,,,,,,,,,,,,,,,,,,106.18175559997326,None,,,,,,,,,,,,,,,,,,,,,,,,,,,,,,,,,,,,,,,,,,,,,,,,,,,,,,,,,,,,,,,,,,,,,,,,,,,,,,,,,,,,,,,,,,,,,,,,,,,,,,,,,,,,,,,,,,,,,pilot_4,001,2019_Nov_06_1712,test_final,3.1.5,60.036045650691584,
,,,,7,0,7,0,3,0,3,0,,,,,,,,,,,,,,,,,,,,,,,,,,,,,,,,,,,,,,,107.48565649997909,106.96730409999145,,,,,,,,,,,,,,,,,,,,,,,,,,,,,,,,,,,,,,,,,,,,,,,,,,,,,,,,,,,,,,,,,,,,,,,,,,,,,,,,,,,,,,,,,,,,,,,,,,,,,,,,,,,,,,,,,,,,,pilot_4,001,2019_Nov_06_1712,test_final,3.1.5,60.036045650691584,
,,,,7,0,7,0,4,0,4,0,,,,,,,,,,,,,,,,,,,,,,,,,,,,,,,,,,,,,,,108.77911669999594,108.26612430001842,,,,,,,,,,,,,,,,,,,,,,,,,,,,,,,,,,,,,,,,,,,,,,,,,,,,,,,,,,,,,,,,,,,,,,,,,,,,,,,,,,,,,,,,,,,,,,,,,,,,,,,,,,,,,,,,,,,,,pilot_4,001,2019_Nov_06_1712,test_final,3.1.5,60.036045650691584,
,,,,8,0,8,0,0,0,0,0,,,,,,,,,,,,,,,,,,,,,,,,,,,,,,,,,,,,,,,112.95830040000146,None,hqvkr,"['h', 'q', 'v', 'k', 'r']","[0.7048417999758385, 0.9854003999498673, 1.3719061999581754, 1.9208038999931887, 2.064587400003802, 2.3025496999616735]",110.07784519996494,None,110.07784519996494,None,1,HQVKR,110.07784519996494,None,,,,,,,,,,,,,,,,,,,,,,,,,,,,,,,,,,,,,,,,,,,,,,,,,,,,,,,,,,,,,,,,,,,,,,,,,,,,,,,,,,,,,,,,,,,,,,,,,,,,,,,,,,pilot_4,001,2019_Nov_06_1712,test_final,3.1.5,60.036045650691584,
,,,,8,0,8,0,1,0,1,0,,,,,,,,,,,,,,,,,,,,,,,,,,,,,,,,,,,,,,,114.25714269996388,None,,,,,,,,,,,,,,,,,,,,,,,,,,,,,,,,,,,,,,,,,,,,,,,,,,,,,,,,,,,,,,,,,,,,,,,,,,,,,,,,,,,,,,,,,,,,,,,,,,,,,,,,,,,,,,,,,,,,,pilot_4,001,2019_Nov_06_1712,test_final,3.1.5,60.036045650691584,
,,,,8,0,8,0,2,0,2,0,,,,,,,,,,,,,,,,,,,,,,,,,,,,,,,,,,,,,,,115.55580570001621,115.04112539999187,,,,,,,,,,,,,,,,,,,,,,,,,,,,,,,,,,,,,,,,,,,,,,,,,,,,,,,,,,,,,,,,,,,,,,,,,,,,,,,,,,,,,,,,,,,,,,,,,,,,,,,,,,,,,,,,,,,,,pilot_4,001,2019_Nov_06_1712,test_final,3.1.5,60.036045650691584,
,,,,8,0,8,0,3,0,3,0,,,,,,,,,,,,,,,,,,,,,,,,,,,,,,,,,,,,,,,116.8545424999902,116.33875719999196,,,,,,,,,,,,,,,,,,,,,,,,,,,,,,,,,,,,,,,,,,,,,,,,,,,,,,,,,,,,,,,,,,,,,,,,,,,,,,,,,,,,,,,,,,,,,,,,,,,,,,,,,,,,,,,,,,,,,pilot_4,001,2019_Nov_06_1712,test_final,3.1.5,60.036045650691584,
,,,,8,0,8,0,4,0,4,0,,,,,,,,,,,,,,,,,,,,,,,,,,,,,,,,,,,,,,,118.15334859996801,117.63969749998068,,,,,,,,,,,,,,,,,,,,,,,,,,,,,,,,,,,,,,,,,,,,,,,,,,,,,,,,,,,,,,,,,,,,,,,,,,,,,,,,,,,,,,,,,,,,,,,,,,,,,,,,,,,,,,,,,,,,,pilot_4,001,2019_Nov_06_1712,test_final,3.1.5,60.036045650691584,
,,,,8,0,8,0,5,0,5,0,,,,,,,,,,,,,,,,,,,,,,,,,,,,,,,,,,,,,,,119.45187719998648,118.95284909999464,,,,,,,,,,,,,,,,,,,,,,,,,,,,,,,,,,,,,,,,,,,,,,,,,,,,,,,,,,,,,,,,,,,,,,,,,,,,,,,,,,,,,,,,,,,,,,,,,,,,,,,,,,,,,,,,,,,,,pilot_4,001,2019_Nov_06_1712,test_final,3.1.5,60.036045650691584,
,,,,9,0,9,0,0,0,0,0,,,,,,,,,,,,,,,,,,,,,,,,,,,,,,,,,,,,,,,127.11071109998738,None,rvkzhx,"['r', 'v', 'k', 'z', 'h', 'x']","[1.4140717000118457, 1.7235219000140205, 2.5162572999834083, 3.1001611999818124, 3.628917200025171, 4.539671300037298, 5.777059399988502]",120.75094009999884,None,120.75094009999884,None,1,RVKZHX,120.75094009999884,None,,,,,,,,,,,,,,,,,,,,,,,,,,,,,,,,,,,,,,,,,,,,,,,,,,,,,,,,,,,,,,,,,,,,,,,,,,,,,,,,,,,,,,,,,,,,,,,,,,,,,,,,,,pilot_4,001,2019_Nov_06_1712,test_final,3.1.5,60.036045650691584,
,,,,9,0,9,0,1,0,1,0,,,,,,,,,,,,,,,,,,,,,,,,,,,,,,,,,,,,,,,128.4093705000123,None,,,,,,,,,,,,,,,,,,,,,,,,,,,,,,,,,,,,,,,,,,,,,,,,,,,,,,,,,,,,,,,,,,,,,,,,,,,,,,,,,,,,,,,,,,,,,,,,,,,,,,,,,,,,,,,,,,,,,pilot_4,001,2019_Nov_06_1712,test_final,3.1.5,60.036045650691584,
,,,,9,0,9,0,2,0,2,0,,,,,,,,,,,,,,,,,,,,,,,,,,,,,,,,,,,,,,,129.70799259998603,None,,,,,,,,,,,,,,,,,,,,,,,,,,,,,,,,,,,,,,,,,,,,,,,,,,,,,,,,,,,,,,,,,,,,,,,,,,,,,,,,,,,,,,,,,,,,,,,,,,,,,,,,,,,,,,,,,,,,,pilot_4,001,2019_Nov_06_1712,test_final,3.1.5,60.036045650691584,
,,,,9,0,9,0,3,0,3,0,,,,,,,,,,,,,,,,,,,,,,,,,,,,,,,,,,,,,,,131.00741929997457,None,,,,,,,,,,,,,,,,,,,,,,,,,,,,,,,,,,,,,,,,,,,,,,,,,,,,,,,,,,,,,,,,,,,,,,,,,,,,,,,,,,,,,,,,,,,,,,,,,,,,,,,,,,,,,,,,,,,,,pilot_4,001,2019_Nov_06_1712,test_final,3.1.5,60.036045650691584,
,,,,9,0,9,0,4,0,4,0,,,,,,,,,,,,,,,,,,,,,,,,,,,,,,,,,,,,,,,132.306018400006,None,,,,,,,,,,,,,,,,,,,,,,,,,,,,,,,,,,,,,,,,,,,,,,,,,,,,,,,,,,,,,,,,,,,,,,,,,,,,,,,,,,,,,,,,,,,,,,,,,,,,,,,,,,,,,,,,,,,,,pilot_4,001,2019_Nov_06_1712,test_final,3.1.5,60.036045650691584,
,,,,9,0,9,0,5,0,5,0,,,,,,,,,,,,,,,,,,,,,,,,,,,,,,,,,,,,,,,133.6047861999832,None,,,,,,,,,,,,,,,,,,,,,,,,,,,,,,,,,,,,,,,,,,,,,,,,,,,,,,,,,,,,,,,,,,,,,,,,,,,,,,,,,,,,,,,,,,,,,,,,,,,,,,,,,,,,,,,,,,,,,pilot_4,001,2019_Nov_06_1712,test_final,3.1.5,60.036045650691584,
,,,,10,0,10,0,0,0,0,0,,,,,,,,,,,,,,,,,,,,,,,,,,,,,,,,,,,,,,,139.14928100001998,None,shrqkl,"['s', 'h', 'r', 'q', 'k', 'l']","[1.485380099969916, 1.7061322999652475, 2.050167399982456, 2.814129500009585, 3.0496219000197016, 3.2536478000110947, 3.647928799968213]",134.90348540002014,None,134.90348540002014,None,1,SHRQKL,134.90348540002014,None,,,,,,,,,,,,,,,,,,,,,,,,,,,,,,,,,,,,,,,,,,,,,,,,,,,,,,,,,,,,,,,,,,,,,,,,,,,,,,,,,,,,,,,,,,,,,,,,,,,,,,,,,,pilot_4,001,2019_Nov_06_1712,test_final,3.1.5,60.036045650691584,
,,,,10,0,10,0,1,0,1,0,,,,,,,,,,,,,,,,,,,,,,,,,,,,,,,,,,,,,,,140.44808639999246,None,,,,,,,,,,,,,,,,,,,,,,,,,,,,,,,,,,,,,,,,,,,,,,,,,,,,,,,,,,,,,,,,,,,,,,,,,,,,,,,,,,,,,,,,,,,,,,,,,,,,,,,,,,,,,,,,,,,,,pilot_4,001,2019_Nov_06_1712,test_final,3.1.5,60.036045650691584,
,,,,10,0,10,0,2,0,2,0,,,,,,,,,,,,,,,,,,,,,,,,,,,,,,,,,,,,,,,141.7469522000174,None,,,,,,,,,,,,,,,,,,,,,,,,,,,,,,,,,,,,,,,,,,,,,,,,,,,,,,,,,,,,,,,,,,,,,,,,,,,,,,,,,,,,,,,,,,,,,,,,,,,,,,,,,,,,,,,,,,,,,pilot_4,001,2019_Nov_06_1712,test_final,3.1.5,60.036045650691584,
,,,,10,0,10,0,3,0,3,0,,,,,,,,,,,,,,,,,,,,,,,,,,,,,,,,,,,,,,,143.04552350001177,None,,,,,,,,,,,,,,,,,,,,,,,,,,,,,,,,,,,,,,,,,,,,,,,,,,,,,,,,,,,,,,,,,,,,,,,,,,,,,,,,,,,,,,,,,,,,,,,,,,,,,,,,,,,,,,,,,,,,,pilot_4,001,2019_Nov_06_1712,test_final,3.1.5,60.036045650691584,
,,,,10,0,10,0,4,0,4,0,,,,,,,,,,,,,,,,,,,,,,,,,,,,,,,,,,,,,,,144.3441967999679,143.8292757999734,,,,,,,,,,,,,,,,,,,,,,,,,,,,,,,,,,,,,,,,,,,,,,,,,,,,,,,,,,,,,,,,,,,,,,,,,,,,,,,,,,,,,,,,,,,,,,,,,,,,,,,,,,,,,,,,,,,,,pilot_4,001,2019_Nov_06_1712,test_final,3.1.5,60.036045650691584,
,,,,10,0,10,0,5,0,5,0,,,,,,,,,,,,,,,,,,,,,,,,,,,,,,,,,,,,,,,145.64285070000915,145.12784009997267,,,,,,,,,,,,,,,,,,,,,,,,,,,,,,,,,,,,,,,,,,,,,,,,,,,,,,,,,,,,,,,,,,,,,,,,,,,,,,,,,,,,,,,,,,,,,,,,,,,,,,,,,,,,,,,,,,,,,pilot_4,001,2019_Nov_06_1712,test_final,3.1.5,60.036045650691584,
,,,,10,0,10,0,6,0,6,0,,,,,,,,,,,,,,,,,,,,,,,,,,,,,,,,,,,,,,,146.94157889997587,146.4270358000067,,,,,,,,,,,,,,,,,,,,,,,,,,,,,,,,,,,,,,,,,,,,,,,,,,,,,,,,,,,,,,,,,,,,,,,,,,,,,,,,,,,,,,,,,,,,,,,,,,,,,,,,,,,,,,,,,,,,,pilot_4,001,2019_Nov_06_1712,test_final,3.1.5,60.036045650691584,
,,,,11,0,11,0,0,0,0,0,,,,,,,,,,,,,,,,,,,,,,,,,,,,,,,,,,,,,,,154.18459299998358,None,jhxrtnq,"['j', 'h', 'x', 'r', 't', 'n', 'q']","[1.0210889999871142, 1.300370600016322, 2.8471284999977797, 3.145084500021767, 3.48577299999306, 3.856518500018865, 4.934039300016593, 5.353839799994603]",148.24050600000191,None,148.24050600000191,None,1,JHXRTNQ,148.24050600000191,None,,,,,,,,,,,,,,,,,,,,,,,,,,,,,,,,,,,,,,,,,,,,,,,,,,,,,,,,,,,,,,,,,,,,,,,,,,,,,,,,,,,,,,,,,,,,,,,,,,,,,,,,,,pilot_4,001,2019_Nov_06_1712,test_final,3.1.5,60.036045650691584,
,,,,11,0,11,0,1,0,1,0,,,,,,,,,,,,,,,,,,,,,,,,,,,,,,,,,,,,,,,155.48323080001865,None,,,,,,,,,,,,,,,,,,,,,,,,,,,,,,,,,,,,,,,,,,,,,,,,,,,,,,,,,,,,,,,,,,,,,,,,,,,,,,,,,,,,,,,,,,,,,,,,,,,,,,,,,,,,,,,,,,,,,pilot_4,001,2019_Nov_06_1712,test_final,3.1.5,60.036045650691584,
,,,,11,0,11,0,2,0,2,0,,,,,,,,,,,,,,,,,,,,,,,,,,,,,,,,,,,,,,,156.78187419997994,156.26629040000262,,,,,,,,,,,,,,,,,,,,,,,,,,,,,,,,,,,,,,,,,,,,,,,,,,,,,,,,,,,,,,,,,,,,,,,,,,,,,,,,,,,,,,,,,,,,,,,,,,,,,,,,,,,,,,,,,,,,,pilot_4,001,2019_Nov_06_1712,test_final,3.1.5,60.036045650691584,
,,,,11,0,11,0,3,0,3,0,,,,,,,,,,,,,,,,,,,,,,,,,,,,,,,,,,,,,,,158.08084589999635,157.56618409999646,,,,,,,,,,,,,,,,,,,,,,,,,,,,,,,,,,,,,,,,,,,,,,,,,,,,,,,,,,,,,,,,,,,,,,,,,,,,,,,,,,,,,,,,,,,,,,,,,,,,,,,,,,,,,,,,,,,,,pilot_4,001,2019_Nov_06_1712,test_final,3.1.5,60.036045650691584,
,,,,11,0,11,0,4,0,4,0,,,,,,,,,,,,,,,,,,,,,,,,,,,,,,,,,,,,,,,159.37955630000215,158.86642739997478,,,,,,,,,,,,,,,,,,,,,,,,,,,,,,,,,,,,,,,,,,,,,,,,,,,,,,,,,,,,,,,,,,,,,,,,,,,,,,,,,,,,,,,,,,,,,,,,,,,,,,,,,,,,,,,,,,,,,pilot_4,001,2019_Nov_06_1712,test_final,3.1.5,60.036045650691584,
,,,,11,0,11,0,5,0,5,0,,,,,,,,,,,,,,,,,,,,,,,,,,,,,,,,,,,,,,,160.67837490001693,160.1633799999836,,,,,,,,,,,,,,,,,,,,,,,,,,,,,,,,,,,,,,,,,,,,,,,,,,,,,,,,,,,,,,,,,,,,,,,,,,,,,,,,,,,,,,,,,,,,,,,,,,,,,,,,,,,,,,,,,,,,,pilot_4,001,2019_Nov_06_1712,test_final,3.1.5,60.036045650691584,
,,,,11,0,11,0,6,0,6,0,,,,,,,,,,,,,,,,,,,,,,,,,,,,,,,,,,,,,,,161.97681849997025,161.46235849999357,,,,,,,,,,,,,,,,,,,,,,,,,,,,,,,,,,,,,,,,,,,,,,,,,,,,,,,,,,,,,,,,,,,,,,,,,,,,,,,,,,,,,,,,,,,,,,,,,,,,,,,,,,,,,,,,,,,,,pilot_4,001,2019_Nov_06_1712,test_final,3.1.5,60.036045650691584,
,,,,12,0,12,0,0,0,0,0,,,,,,,,,,,,,,,,,,,,,,,,,,,,,,,,,,,,,,,168.00426650000736,None,rhjtxvl,"['r', 'h', 'j', 't', 'x', 'v', 'l']","[1.4817388999508694, 1.660883299948182, 1.9305989999556914, 2.217201599967666, 2.8359673999948427, 3.4150447999709286, 3.663459499948658, 4.1353944999864325]",163.27555009996286,None,163.27555009996286,None,1,RHJTXVL,163.27555009996286,None,,,,,,,,,,,,,,,,,,,,,,,,,,,,,,,,,,,,,,,,,,,,,,,,,,,,,,,,,,,,,,,,,,,,,,,,,,,,,,,,,,,,,,,,,,,,,,,,,,,,,,,,,,pilot_4,001,2019_Nov_06_1712,test_final,3.1.5,60.036045650691584,
,,,,12,0,12,0,1,0,1,0,,,,,,,,,,,,,,,,,,,,,,,,,,,,,,,,,,,,,,,169.30317849997664,None,,,,,,,,,,,,,,,,,,,,,,,,,,,,,,,,,,,,,,,,,,,,,,,,,,,,,,,,,,,,,,,,,,,,,,,,,,,,,,,,,,,,,,,,,,,,,,,,,,,,,,,,,,,,,,,,,,,,,pilot_4,001,2019_Nov_06_1712,test_final,3.1.5,60.036045650691584,
,,,,12,0,12,0,2,0,2,0,,,,,,,,,,,,,,,,,,,,,,,,,,,,,,,,,,,,,,,170.60191699996358,170.0875459999661,,,,,,,,,,,,,,,,,,,,,,,,,,,,,,,,,,,,,,,,,,,,,,,,,,,,,,,,,,,,,,,,,,,,,,,,,,,,,,,,,,,,,,,,,,,,,,,,,,,,,,,,,,,,,,,,,,,,,pilot_4,001,2019_Nov_06_1712,test_final,3.1.5,60.036045650691584,
,,,,12,0,12,0,3,0,3,0,,,,,,,,,,,,,,,,,,,,,,,,,,,,,,,,,,,,,,,171.90068700001575,171.38436650001677,,,,,,,,,,,,,,,,,,,,,,,,,,,,,,,,,,,,,,,,,,,,,,,,,,,,,,,,,,,,,,,,,,,,,,,,,,,,,,,,,,,,,,,,,,,,,,,,,,,,,,,,,,,,,,,,,,,,,pilot_4,001,2019_Nov_06_1712,test_final,3.1.5,60.036045650691584,
,,,,12,0,12,0,4,0,4,0,,,,,,,,,,,,,,,,,,,,,,,,,,,,,,,,,,,,,,,173.19922750000842,172.684286099975,,,,,,,,,,,,,,,,,,,,,,,,,,,,,,,,,,,,,,,,,,,,,,,,,,,,,,,,,,,,,,,,,,,,,,,,,,,,,,,,,,,,,,,,,,,,,,,,,,,,,,,,,,,,,,,,,,,,,pilot_4,001,2019_Nov_06_1712,test_final,3.1.5,60.036045650691584,
,,,,12,0,12,0,5,0,5,0,,,,,,,,,,,,,,,,,,,,,,,,,,,,,,,,,,,,,,,174.4978204999934,173.98307479999494,,,,,,,,,,,,,,,,,,,,,,,,,,,,,,,,,,,,,,,,,,,,,,,,,,,,,,,,,,,,,,,,,,,,,,,,,,,,,,,,,,,,,,,,,,,,,,,,,,,,,,,,,,,,,,,,,,,,,pilot_4,001,2019_Nov_06_1712,test_final,3.1.5,60.036045650691584,
,,,,12,0,12,0,6,0,6,0,,,,,,,,,,,,,,,,,,,,,,,,,,,,,,,,,,,,,,,175.79672939999728,175.28491029998986,,,,,,,,,,,,,,,,,,,,,,,,,,,,,,,,,,,,,,,,,,,,,,,,,,,,,,,,,,,,,,,,,,,,,,,,,,,,,,,,,,,,,,,,,,,,,,,,,,,,,,,,,,,,,,,,,,,,,pilot_4,001,2019_Nov_06_1712,test_final,3.1.5,60.036045650691584,
,,,,12,0,12,0,7,0,7,0,,,,,,,,,,,,,,,,,,,,,,,,,,,,,,,,,,,,,,,177.0953545999946,176.58096669998486,,,,,,,,,,,,,,,,,,,,,,,,,,,,,,,,,,,,,,,,,,,,,,,,,,,,,,,,,,,,,,,,,,,,,,,,,,,,,,,,,,,,,,,,,,,,,,,,,,,,,,,,,,,,,,,,,,,,,pilot_4,001,2019_Nov_06_1712,test_final,3.1.5,60.036045650691584,
,,,,13,0,13,0,0,0,0,0,,,,,,,,,,,,,,,,,,,,,,,,,,,,,,,,,,,,,,,185.47047759999987,None,rqvzlxtk,"['r', 'q', 'v', 'z', 'l', 'x', 't', 'k']","[1.264977800019551, 1.5725327000254765, 2.0145177000085823, 3.056230599991977, 3.351667200040538, 4.1663080000435, 4.527334999991581, 5.333416300010867, 6.5006511000101455]",178.39445249998244,None,178.39445249998244,None,1,RQVZLXTK,178.39445249998244,None,,,,,,,,,,,,,,,,,,,,,,,,,,,,,,,,,,,,,,,,,,,,,,,,,,,,,,,,,,,,,,,,,,,,,,,,,,,,,,,,,,,,,,,,,,,,,,,,,,,,,,,,,,pilot_4,001,2019_Nov_06_1712,test_final,3.1.5,60.036045650691584,
,,,,13,0,13,0,1,0,1,0,,,,,,,,,,,,,,,,,,,,,,,,,,,,,,,,,,,,,,,186.76918110001134,None,,,,,,,,,,,,,,,,,,,,,,,,,,,,,,,,,,,,,,,,,,,,,,,,,,,,,,,,,,,,,,,,,,,,,,,,,,,,,,,,,,,,,,,,,,,,,,,,,,,,,,,,,,,,,,,,,,,,,pilot_4,001,2019_Nov_06_1712,test_final,3.1.5,60.036045650691584,
,,,,13,0,13,0,2,0,2,0,,,,,,,,,,,,,,,,,,,,,,,,,,,,,,,,,,,,,,,188.0678780999733,None,,,,,,,,,,,,,,,,,,,,,,,,,,,,,,,,,,,,,,,,,,,,,,,,,,,,,,,,,,,,,,,,,,,,,,,,,,,,,,,,,,,,,,,,,,,,,,,,,,,,,,,,,,,,,,,,,,,,,pilot_4,001,2019_Nov_06_1712,test_final,3.1.5,60.036045650691584,
,,,,13,0,13,0,3,0,3,0,,,,,,,,,,,,,,,,,,,,,,,,,,,,,,,,,,,,,,,189.3667989000096,188.85295039997436,,,,,,,,,,,,,,,,,,,,,,,,,,,,,,,,,,,,,,,,,,,,,,,,,,,,,,,,,,,,,,,,,,,,,,,,,,,,,,,,,,,,,,,,,,,,,,,,,,,,,,,,,,,,,,,,,,,,,pilot_4,001,2019_Nov_06_1712,test_final,3.1.5,60.036045650691584,
,,,,13,0,13,0,4,0,4,0,,,,,,,,,,,,,,,,,,,,,,,,,,,,,,,,,,,,,,,190.66539709997596,190.15091440000106,,,,,,,,,,,,,,,,,,,,,,,,,,,,,,,,,,,,,,,,,,,,,,,,,,,,,,,,,,,,,,,,,,,,,,,,,,,,,,,,,,,,,,,,,,,,,,,,,,,,,,,,,,,,,,,,,,,,,pilot_4,001,2019_Nov_06_1712,test_final,3.1.5,60.036045650691584,
,,,,13,0,13,0,5,0,5,0,,,,,,,,,,,,,,,,,,,,,,,,,,,,,,,,,,,,,,,191.96439729997655,191.4492903999635,,,,,,,,,,,,,,,,,,,,,,,,,,,,,,,,,,,,,,,,,,,,,,,,,,,,,,,,,,,,,,,,,,,,,,,,,,,,,,,,,,,,,,,,,,,,,,,,,,,,,,,,,,,,,,,,,,,,,pilot_4,001,2019_Nov_06_1712,test_final,3.1.5,60.036045650691584,
,,,,13,0,13,0,6,0,6,0,,,,,,,,,,,,,,,,,,,,,,,,,,,,,,,,,,,,,,,193.2628115999978,192.7461353999679,,,,,,,,,,,,,,,,,,,,,,,,,,,,,,,,,,,,,,,,,,,,,,,,,,,,,,,,,,,,,,,,,,,,,,,,,,,,,,,,,,,,,,,,,,,,,,,,,,,,,,,,,,,,,,,,,,,,,pilot_4,001,2019_Nov_06_1712,test_final,3.1.5,60.036045650691584,
,,,,13,0,13,0,7,0,7,0,,,,,,,,,,,,,,,,,,,,,,,,,,,,,,,,,,,,,,,194.5613999000052,194.04813070001546,,,,,,,,,,,,,,,,,,,,,,,,,,,,,,,,,,,,,,,,,,,,,,,,,,,,,,,,,,,,,,,,,,,,,,,,,,,,,,,,,,,,,,,,,,,,,,,,,,,,,,,,,,,,,,,,,,,,,pilot_4,001,2019_Nov_06_1712,test_final,3.1.5,60.036045650691584,
,,,,14,0,14,0,0,0,0,0,,,,,,,,,,,,,,,,,,,,,,,,,,,,,,,,,,,,,,,201.75450300000375,None,rnhxtqj,"['r', 'n', 'h', 'x', 't', 'q', 'j']","[1.3650450999848545, 1.5711012000101618, 2.0475531999836676, 2.665914500015788, 3.1628647000179626, 3.529772999987472, 4.04575130000012, 5.298994400014635]",195.86050660000183,None,195.86050660000183,None,0,RNHXTQSJ,195.86050660000183,None,,,,,,,,,,,,,,,,,,,,,,,,,,,,,,,,,,,,,,,,,,,,,,,,,,,,,,,,,,,,,,,,,,,,,,,,,,,,,,,,,,,,,,,,,,,,,,,,,,,,,,,,,,pilot_4,001,2019_Nov_06_1712,test_final,3.1.5,60.036045650691584,
,,,,14,0,14,0,1,0,1,0,,,,,,,,,,,,,,,,,,,,,,,,,,,,,,,,,,,,,,,203.05341930000577,None,,,,,,,,,,,,,,,,,,,,,,,,,,,,,,,,,,,,,,,,,,,,,,,,,,,,,,,,,,,,,,,,,,,,,,,,,,,,,,,,,,,,,,,,,,,,,,,,,,,,,,,,,,,,,,,,,,,,,pilot_4,001,2019_Nov_06_1712,test_final,3.1.5,60.036045650691584,
,,,,14,0,14,0,2,0,2,0,,,,,,,,,,,,,,,,,,,,,,,,,,,,,,,,,,,,,,,204.35201349999988,None,,,,,,,,,,,,,,,,,,,,,,,,,,,,,,,,,,,,,,,,,,,,,,,,,,,,,,,,,,,,,,,,,,,,,,,,,,,,,,,,,,,,,,,,,,,,,,,,,,,,,,,,,,,,,,,,,,,,,pilot_4,001,2019_Nov_06_1712,test_final,3.1.5,60.036045650691584,
,,,,14,0,14,0,3,0,3,0,,,,,,,,,,,,,,,,,,,,,,,,,,,,,,,,,,,,,,,205.6508751999936,205.1397504999768,,,,,,,,,,,,,,,,,,,,,,,,,,,,,,,,,,,,,,,,,,,,,,,,,,,,,,,,,,,,,,,,,,,,,,,,,,,,,,,,,,,,,,,,,,,,,,,,,,,,,,,,,,,,,,,,,,,,,pilot_4,001,2019_Nov_06_1712,test_final,3.1.5,60.036045650691584,
,,,,14,0,14,0,4,0,4,0,,,,,,,,,,,,,,,,,,,,,,,,,,,,,,,,,,,,,,,206.9495144999819,206.4345583000104,,,,,,,,,,,,,,,,,,,,,,,,,,,,,,,,,,,,,,,,,,,,,,,,,,,,,,,,,,,,,,,,,,,,,,,,,,,,,,,,,,,,,,,,,,,,,,,,,,,,,,,,,,,,,,,,,,,,,pilot_4,001,2019_Nov_06_1712,test_final,3.1.5,60.036045650691584,
,,,,14,0,14,0,5,0,5,0,,,,,,,,,,,,,,,,,,,,,,,,,,,,,,,,,,,,,,,208.24812539998675,207.73405669996282,,,,,,,,,,,,,,,,,,,,,,,,,,,,,,,,,,,,,,,,,,,,,,,,,,,,,,,,,,,,,,,,,,,,,,,,,,,,,,,,,,,,,,,,,,,,,,,,,,,,,,,,,,,,,,,,,,,,,pilot_4,001,2019_Nov_06_1712,test_final,3.1.5,60.036045650691584,
,,,,14,0,14,0,6,0,6,0,,,,,,,,,,,,,,,,,,,,,,,,,,,,,,,,,,,,,,,209.54684650001582,209.03381039999658,,,,,,,,,,,,,,,,,,,,,,,,,,,,,,,,,,,,,,,,,,,,,,,,,,,,,,,,,,,,,,,,,,,,,,,,,,,,,,,,,,,,,,,,,,,,,,,,,,,,,,,,,,,,,,,,,,,,,pilot_4,001,2019_Nov_06_1712,test_final,3.1.5,60.036045650691584,
,,,,14,0,14,0,7,0,7,0,,,,,,,,,,,,,,,,,,,,,,,,,,,,,,,,,,,,,,,210.8455522999866,210.33293799997773,,,,,,,,,,,,,,,,,,,,,,,,,,,,,,,,,,,,,,,,,,,,,,,,,,,,,,,,,,,,,,,,,,,,,,,,,,,,,,,,,,,,,,,,,,,,,,,,,,,,,,,,,,,,,,,,,,,,,pilot_4,001,2019_Nov_06_1712,test_final,3.1.5,60.036045650691584,
,,,,15,0,15,0,0,0,0,0,,,,,,,,,,,,,,,,,,,,,,,,,,,,,,,,,,,,,,,219.62037229997804,None,zxntrv,"['z', 'x', 'n', 't', 'r', 'v']","[1.650343899964355, 3.1951571999816224, 3.6320533999823965, 3.9272748999646865, 4.390070099965669, 5.674578699981794, 6.889389899966773]",212.14466869999887,None,212.14466869999887,None,0,ZSXNTRVQ,212.14466869999887,None,,,,,,,,,,,,,,,,,,,,,,,,,,,,,,,,,,,,,,,,,,,,,,,,,,,,,,,,,,,,,,,,,,,,,,,,,,,,,,,,,,,,,,,,,,,,,,,,,,,,,,,,,,pilot_4,001,2019_Nov_06_1712,test_final,3.1.5,60.036045650691584,
,,,,15,0,15,0,1,0,1,0,,,,,,,,,,,,,,,,,,,,,,,,,,,,,,,,,,,,,,,220.91910160001134,None,,,,,,,,,,,,,,,,,,,,,,,,,,,,,,,,,,,,,,,,,,,,,,,,,,,,,,,,,,,,,,,,,,,,,,,,,,,,,,,,,,,,,,,,,,,,,,,,,,,,,,,,,,,,,,,,,,,,,pilot_4,001,2019_Nov_06_1712,test_final,3.1.5,60.036045650691584,
,,,,15,0,15,0,2,0,2,0,,,,,,,,,,,,,,,,,,,,,,,,,,,,,,,,,,,,,,,222.21790150000015,None,,,,,,,,,,,,,,,,,,,,,,,,,,,,,,,,,,,,,,,,,,,,,,,,,,,,,,,,,,,,,,,,,,,,,,,,,,,,,,,,,,,,,,,,,,,,,,,,,,,,,,,,,,,,,,,,,,,,,pilot_4,001,2019_Nov_06_1712,test_final,3.1.5,60.036045650691584,
,,,,15,0,15,0,3,0,3,0,,,,,,,,,,,,,,,,,,,,,,,,,,,,,,,,,,,,,,,223.51664869999513,223.00168139999732,,,,,,,,,,,,,,,,,,,,,,,,,,,,,,,,,,,,,,,,,,,,,,,,,,,,,,,,,,,,,,,,,,,,,,,,,,,,,,,,,,,,,,,,,,,,,,,,,,,,,,,,,,,,,,,,,,,,,pilot_4,001,2019_Nov_06_1712,test_final,3.1.5,60.036045650691584,
,,,,15,0,15,0,4,0,4,0,,,,,,,,,,,,,,,,,,,,,,,,,,,,,,,,,,,,,,,224.81528609996894,224.30061320000095,,,,,,,,,,,,,,,,,,,,,,,,,,,,,,,,,,,,,,,,,,,,,,,,,,,,,,,,,,,,,,,,,,,,,,,,,,,,,,,,,,,,,,,,,,,,,,,,,,,,,,,,,,,,,,,,,,,,,pilot_4,001,2019_Nov_06_1712,test_final,3.1.5,60.036045650691584,
,,,,15,0,15,0,5,0,5,0,,,,,,,,,,,,,,,,,,,,,,,,,,,,,,,,,,,,,,,226.11400329996832,225.599384000001,,,,,,,,,,,,,,,,,,,,,,,,,,,,,,,,,,,,,,,,,,,,,,,,,,,,,,,,,,,,,,,,,,,,,,,,,,,,,,,,,,,,,,,,,,,,,,,,,,,,,,,,,,,,,,,,,,,,,pilot_4,001,2019_Nov_06_1712,test_final,3.1.5,60.036045650691584,
,,,,15,0,15,0,6,0,6,0,,,,,,,,,,,,,,,,,,,,,,,,,,,,,,,,,,,,,,,227.41263350000372,226.89817860000767,,,,,,,,,,,,,,,,,,,,,,,,,,,,,,,,,,,,,,,,,,,,,,,,,,,,,,,,,,,,,,,,,,,,,,,,,,,,,,,,,,,,,,,,,,,,,,,,,,,,,,,,,,,,,,,,,,,,,pilot_4,001,2019_Nov_06_1712,test_final,3.1.5,60.036045650691584,
,,,,15,0,15,0,7,0,7,0,,,,,,,,,,,,,,,,,,,,,,,,,,,,,,,,,,,,,,,228.71147779998137,228.19662000000244,,,,,,,,,,,,,,,,,,,,,,,,,,,,,,,,,,,,,,,,,,,,,,,,,,,,,,,,,,,,,,,,,,,,,,,,,,,,,,,,,,,,,,,,,,,,,,,,,,,,,,,,,,,,,,,,,,,,,pilot_4,001,2019_Nov_06_1712,test_final,3.1.5,60.036045650691584,
,,,,,,,,,,,,,,,,,,,,,,,,,,,,,,,,,,,,,,,,,,,,,,,,,,,,nhzstlv,"['n', 'h', 'z', 's', 't', 'l', 'v']","[3.312050200009253, 3.8860524999909103, 4.833912900008727, 5.78580160002457, 6.276726000010967, 6.518346099997871, 10.681547300016973, 12.090145899972413]",230.01017530000536,None,230.01017530000536,None,0,NHZSKLVX,230.01017530000536,None,242.66472890001023,None,space,7.35350520000793,242.66472890001023,None,,,,,,,,,,,,,,,,,,,,,,,,,,,,,,,,,,,,,,,,,,,,,,,,,,,,,,,,,,,,,,,,,,,,,,,,,,,,,,,,,,,,,,,,,,,,,,,,,,,,pilot_4,001,2019_Nov_06_1712,test_final,3.1.5,60.036045650691584,
Practice,13,(3x8) - 19 ,5,,,,,,,,,0,0,0,0,0,0,0,12,,,,,,,,,,,,,,,,,,,,,,,,,,,,,,,,,,,,,,,,,,,,,,,,,,5,250.7242341999663,None,['5'],0,[11.1693959000404],250.7242341999663,None,250.7242341999663,None,250.7242341999663,None,262.4283948999946,None,,,,,,,,,,,,,,,,,,,,,,,,,,,,,,,,,,,,,,,,,,,,,,,,,,,,,,,,,,,,,,,,,,,,,,,,,,,,,,,,,,,,,,pilot_4,001,2019_Nov_06_1712,test_final,3.1.5,60.036045650691584,
Practice,9,(4/2) + 5,7,,,,,,,,,0,0,0,0,0,1,1,8,,,,,,,,,,,,,,,,,,,,,,,,,,,,,,,,,,,,,,,,,,,,,,,,,,7,263.9435742999776,None,['7'],0,[2.525575799983926],263.9435742999776,None,263.9435742999776,None,263.9435742999776,None,267.0073320000083,None,,,,,,,,,,,,,,,,,,,,,,,,,,,,,,,,,,,,,,,,,,,,,,,,,,,,,,,,,,,,,,,,,,,,,,,,,,,,,,,,,,,,,,pilot_4,001,2019_Nov_06_1712,test_final,3.1.5,60.036045650691584,
Practice,1,(1x2) + 1,3,,,,,,,,,0,0,0,0,0,2,2,0,,,,,,,,,,,,,,,,,,,,,,,,,,,,,,,,,,,,,,,,,,,,,,,,,,3,268.5058413000079,None,['3'],0,[2.11762210004963],268.5058413000079,None,268.5058413000079,None,268.5058413000079,None,271.1697779999813,None,,,,,,,,,,,,,,,,,,,,,,,,,,,,,,,,,,,,,,,,,,,,,,,,,,,,,,,,,,,,,,,,,,,,,,,,,,,,,,,,,,,,,,pilot_4,001,2019_Nov_06_1712,test_final,3.1.5,60.036045650691584,
Practice,11,(5x3) - 7,8,,,,,,,,,0,0,0,0,0,3,3,10,,,,,,,,,,,,,,,,,,,,,,,,,,,,,,,,,,,,,,,,,,,,,,,,,,8,272.66834580001887,None,['8'],0,[1.8689707000157796],272.66834580001887,None,272.66834580001887,None,272.66834580001887,None,275.08275269996375,None,,,,,,,,,,,,,,,,,,,,,,,,,,,,,,,,,,,,,,,,,,,,,,,,,,,,,,,,,,,,,,,,,,,,,,,,,,,,,,,,,,,,,,pilot_4,001,2019_Nov_06_1712,test_final,3.1.5,60.036045650691584,
Practice,10,(8/4) + 3,5,,,,,,,,,0,0,0,0,0,4,4,9,,,,,,,,,,,,,,,,,,,,,,,,,,,,,,,,,,,,,,,,,,,,,,,,,,5,276.58134629996493,None,['5'],0,[1.9510382000007667],276.58134629996493,None,276.58134629996493,None,276.58134629996493,None,279.07876309996936,None,,,,,,,,,,,,,,,,,,,,,,,,,,,,,,,,,,,,,,,,,,,,,,,,,,,,,,,,,,,,,,,,,,,,,,,,,,,,,,,,,,,,,,pilot_4,001,2019_Nov_06_1712,test_final,3.1.5,60.036045650691584,
Practice,12,(8/2) + 4,8,,,,,,,,,0,0,0,0,0,5,5,11,,,,,,,,,,,,,,,,,,,,,,,,,,,,,,,,,,,,,,,,,,,,,,,,,,8,280.577272799972,None,['8'],0,[2.834212000016123],280.577272799972,None,280.577272799972,None,280.577272799972,None,283.9573960999842,None,,,,,,,,,,,,,,,,,,,,,,,,,,,,,,,,,,,,,,,,,,,,,,,,,,,,,,,,,,,,,,,,,,,,,,,,,,,,,,,,,,,,,,pilot_4,001,2019_Nov_06_1712,test_final,3.1.5,60.036045650691584,
Practice,2,(1/1) - 1,0,,,,,,,,,0,0,0,0,0,6,6,1,,,,,,,,,,,,,,,,,,,,,,,,,,,,,,,,,,,,,,,,,,,,,,,,,,0,285.4558280999772,None,['0'],0,[2.0787557000294328],285.4558280999772,None,285.4558280999772,None,285.4558280999772,None,288.0700022999663,None,,,,,,,,,,,,,,,,,,,,,,,,,,,,,,,,,,,,,,,,,,,,,,,,,,,,,,,,,,,,,,,,,,,,,,,,,,,,,,,,,,,,,,pilot_4,001,2019_Nov_06_1712,test_final,3.1.5,60.036045650691584,
Practice,5,(3/3) + 2,3,,,,,,,,,0,0,0,0,0,7,7,4,,,,,,,,,,,,,,,,,,,,,,,,,,,,,,,,,,,,,,,,,,,,,,,,,,3,289.5684074999881,None,['3'],0,[1.5437761999783106],289.5684074999881,None,289.5684074999881,None,289.5684074999881,None,291.6500267999945,None,,,,,,,,,,,,,,,,,,,,,,,,,,,,,,,,,,,,,,,,,,,,,,,,,,,,,,,,,,,,,,,,,,,,,,,,,,,,,,,,,,,,,,pilot_4,001,2019_Nov_06_1712,test_final,3.1.5,60.036045650691584,
Practice,4,(4x4) - 14,2,,,,,,,,,0,0,0,0,0,8,8,3,,,,,,,,,,,,,,,,,,,,,,,,,,,,,,,,,,,,,,,,,,,,,,,,,,2,293.1482187999645,None,['2'],0,[1.9986665999749675],293.1482187999645,None,293.1482187999645,None,293.1482187999645,None,295.6792471999652,None,,,,,,,,,,,,,,,,,,,,,,,,,,,,,,,,,,,,,,,,,,,,,,,,,,,,,,,,,,,,,,,,,,,,,,,,,,,,,,,,,,,,,,pilot_4,001,2019_Nov_06_1712,test_final,3.1.5,60.036045650691584,
Practice,3,(7x2) - 5,9,,,,,,,,,0,0,0,0,0,9,9,2,,,,,,,,,,,,,,,,,,,,,,,,,,,,,,,,,,,,,,,,,,,,,,,,,,9,297.1776812999742,None,['9'],0,[2.258978899975773],297.1776812999742,None,297.1776812999742,None,297.1776812999742,None,299.97502369998256,None,,,,,,,,,,,,,,,,,,,,,,,,,,,,,,,,,,,,,,,,,,,,,,,,,,,,,,,,,,,,,,,,,,,,,,,,,,,,,,,,,,,,,,pilot_4,001,2019_Nov_06_1712,test_final,3.1.5,60.036045650691584,
Practice,8,(3/3) + 5,6,,,,,,,,,0,0,0,0,0,10,10,7,,,,,,,,,,,,,,,,,,,,,,,,,,,,,,,,,,,,,,,,,,,,,,,,,,6,301.4733672000002,None,['6'],0,[2.7051006000256166],301.4733672000002,None,301.4733672000002,None,301.4733672000002,None,304.7202062999713,None,,,,,,,,,,,,,,,,,,,,,,,,,,,,,,,,,,,,,,,,,,,,,,,,,,,,,,,,,,,,,,,,,,,,,,,,,,,,,,,,,,,,,,pilot_4,001,2019_Nov_06_1712,test_final,3.1.5,60.036045650691584,
Practice,6,(2x6) - 8,4,,,,,,,,,0,0,0,0,0,11,11,5,,,,,,,,,,,,,,,,,,,,,,,,,,,,,,,,,,,,,,,,,,,,,,,,,,4,306.2183025999693,None,['4'],0,[1.68682440003613],306.2183025999693,None,306.2183025999693,None,306.2183025999693,None,308.44989719998557,None,,,,,,,,,,,,,,,,,,,,,,,,,,,,,,,,,,,,,,,,,,,,,,,,,,,,,,,,,,,,,,,,,,,,,,,,,,,,,,,,,,,,,,pilot_4,001,2019_Nov_06_1712,test_final,3.1.5,60.036045650691584,
Practice,15,(9/3) - 2,1,,,,,,,,,0,0,0,0,0,12,12,14,,,,,,,,,,,,,,,,,,,,,,,,,,,,,,,,,,,,,,,,,,,,,,,,,,1,309.94795920001343,None,['1'],0,[2.723772099998314],309.94795920001343,None,309.94795920001343,None,309.94795920001343,None,313.2120514999842,None,,,,,,,,,,,,,,,,,,,,,,,,,,,,,,,,,,,,,,,,,,,,,,,,,,,,,,,,,,,,,,,,,,,,,,,,,,,,,,,,,,,,,,pilot_4,001,2019_Nov_06_1712,test_final,3.1.5,60.036045650691584,
Practice,14,(6/3) + 4 ,6,,,,,,,,,0,0,0,0,0,13,13,13,,,,,,,,,,,,,,,,,,,,,,,,,,,,,,,,,,,,,,,,,,,,,,,,,,6,314.7103470999864,None,['6'],0,[2.80500639998354],314.7103470999864,None,314.7103470999864,None,314.7103470999864,None,318.05752329999814,None,,,,,,,,,,,,,,,,,,,,,,,,,,,,,,,,,,,,,,,,,,,,,,,,,,,,,,,,,,,,,,,,,,,,,,,,,,,,,,,,,,,,,,pilot_4,001,2019_Nov_06_1712,test_final,3.1.5,60.036045650691584,
Practice,7,(4x6) - 17,7,,,,,,,,,0,0,0,0,0,14,14,6,,,,,,,,,,,,,,,,,,,,,,,,,,,,,,,,,,,,,,,,,,,,,,,,,,7,319.5556450000149,None,['7'],0,[2.578932599979453],319.5556450000149,None,319.5556450000149,None,319.5556450000149,None,322.66955559997587,None,,,,,,,,,,,,,,,,,,,,,,,,,,,,,,,,,,,,,,,,,,,,,,,,,,,,,,,,,,,,,,,,,,,,,,,,,,,,,,,,,,,,,,pilot_4,001,2019_Nov_06_1712,test_final,3.1.5,60.036045650691584,
,,,,,,,,,,,,0,0,0,0,,,,,,,,,,,,,,,,,,,,,,,,,,,,,,,,,,,,,,,,,,,,,,,,,,,,,,,,,,,,,,,,,,,,1.0,324.1683404999785,None,space,6.292598199972417,324.1683404999785,None,,,,,,,,,,,,,,,,,,,,,,,,,,,,,,,,,,,,,,,,,,,,,,,,,,,,,,,,,,,,,,,,,,,,,,,,,,,,,,,pilot_4,001,2019_Nov_06_1712,test_final,3.1.5,60.036045650691584,
,,,,,,,,,,,,,,,,,,,,,,,,,,,,,,,,,,,,,,,,,,,,,,,,,,,,,,,,,,,,,,,,,,,,,,,,,,,,,,,,,,,,,,,,,,331.0448385999771,None,space,20.165369099995587,331.0448385999771,None,,,,,,,,,,,,,,,,,,,,,,,,,,,,,,,,,,,,,,,,,,,,,,,,,,,,,,,,,,,,,,,,,,,,,,,,,pilot_4,001,2019_Nov_06_1712,test_final,3.1.5,60.036045650691584,
Practice,9,(4/2) + 5,7,,,,,,,,,,,,,,,,,0,0,0,0,0,0,0,0,0,0,0,8,,,,,,,,,,,,,,,,,,,,,,,,,,,,,,,,,,,,,,7,,,,,,,,,,,,,,,,,,,,,,,,,,,351.8582376000122,None,['7'],0,[2.2584590999758802],351.8582376000122,None,351.8582376000122,None,351.8582376000122,None,1,354.32608640001854,None,354.32608640001854,None,,,,,,,,,,,,,,,,,,,,,,,,,,,,,,,,,,,,,,,,,,,,,,,,,,,,,,,,,pilot_4,001,2019_Nov_06_1712,test_final,3.1.5,60.036045650691584,
,,,,,,,,,,,,,,,,,,,,0,0,0,0,0,0,0,0,,,,,,,,,,,,,,,,,,,,,,,,,,,,,,,,,,,,,,,,,,,,,,,,,,,,,,,,,,,,,,,,,,,,,,,,,,,,,,,,,,,,,355.7202707999968,None,,,,,,,,,,,,,,,,,,,,,,,,,,,,,,,,,,,,,,,,,,,,,,,,,,,,,,,pilot_4,001,2019_Nov_06_1712,test_final,3.1.5,60.036045650691584,
Practice,10,(8/4) + 3,5,,,,,,,,,,,,,,,,,0,0,0,0,1,0,1,0,0,0,0,9,,,,,,,,,,,,,,,,,,,,,,,,,,,,,,,,,,,,,,5,,,,,,,,,,,,,,,,,,,,,,,,,,,357.0024384999997,None,['5'],0,[1.897525999986101],357.0024384999997,None,357.0024384999997,None,357.0024384999997,None,1,359.0590158000123,None,359.0590158000123,None,,,,,,,,,,,,,,,,,,,,,,,,,,,,,,,,,,,,,,,,,,,,,,,,,,,,,,,,,pilot_4,001,2019_Nov_06_1712,test_final,3.1.5,60.036045650691584,
,,,,,,,,,,,,,,,,,,,,0,0,0,0,1,0,1,0,,,,,,,,,,,,,,,,,,,,,,,,,,,,,,,,,,,,,,,,,,,,,,,,,,,,,,,,,,,,,,,,,,,,,,,,,,,,,,,,,,,,,360.4490554999793,None,,,,,,,,,,,,,,,,,,,,,,,,,,,,,,,,,,,,,,,,,,,,,,,,,,,,,,,pilot_4,001,2019_Nov_06_1712,test_final,3.1.5,60.036045650691584,
,,,,,,,,,,,,,,,,,,,,0,0,0,0,,,,,,,,,,,,,,,,,,,,,,,,,,,,,,,,,,,,,,,,,,,,,,,,,,,,,,,,,,,,,,,,,,,,,,,,,,,,,,,,,,,,,,,,,,,zq,"['z', 'q']",0,"[1.8602563999593258, 2.1412242999649607, 2.7612914000055753]",361.68268159998115,None,361.68268159998115,None,361.68268159998115,None,1,365.0111606999999,None,,,,,,,,,,,,,,,,,,,,,,,,,,,,,,,,,,,,,,,,,,pilot_4,001,2019_Nov_06_1712,test_final,3.1.5,60.036045650691584,
Practice,3,(7x2) - 5,9,,,,,,,,,,,,,,,,,1,0,1,0,0,0,0,0,0,0,0,2,,,,,,,,,,,,,,,,,,,,,,,,,,,,,,,,,,,,,,9,,,,,,,,,,,,,,,,,,,,,,,,,,,366.6096649999963,None,['9'],0,[4.1813381999963894],366.6096649999963,None,366.6096649999963,None,366.6096649999963,None,1,370.96346250001807,None,370.96346250001807,None,,,,,,,,,,,,,,,,,,,,,,,,,,,,,,,,,,,,,,,,,,,,,,,,,,,,,,,,,pilot_4,001,2019_Nov_06_1712,test_final,3.1.5,60.036045650691584,
,,,,,,,,,,,,,,,,,,,,1,0,1,0,0,0,0,0,,,,,,,,,,,,,,,,,,,,,,,,,,,,,,,,,,,,,,,,,,,,,,,,,,,,,,,,,,,,,,,,,,,,,,,,,,,,,,,,,,,,,372.3373838000116,None,,,,,,,,,,,,,,,,,,,,,,,,,,,,,,,,,,,,,,,,,,,,,,,,,,,,,,,pilot_4,001,2019_Nov_06_1712,test_final,3.1.5,60.036045650691584,
Practice,12,(8/2) + 4,8,,,,,,,,,,,,,,,,,1,0,1,0,1,0,1,0,0,0,0,11,,,,,,,,,,,,,,,,,,,,,,,,,,,,,,,,,,,,,,6,,,,,,,,,,,,,,,,,,,,,,,,,,,373.6695069000125,None,['6'],0,[1.570138000010047],373.6695069000125,None,373.6695069000125,None,373.6695069000125,None,0,375.4879515999928,None,375.4879515999928,None,,,,,,,,,,,,,,,,,,,,,,,,,,,,,,,,,,,,,,,,,,,,,,,,,,,,,,,,,pilot_4,001,2019_Nov_06_1712,test_final,3.1.5,60.036045650691584,
Practice,4,(4x4) - 14,2,,,,,,,,,,,,,,,,,1,0,1,0,1,0,1,0,0,1,1,3,,,,,,,,,,,,,,,,,,,,,,,,,,,,,,,,,,,,,,2,,,,,,,,,,,,,,,,,,,,,,,,,,,376.8329202000168,None,['2'],0,[1.8470617000130005],376.8329202000168,None,376.8329202000168,None,376.8329202000168,None,1,378.79971029999433,None,378.79971029999433,None,,,,,,,,,,,,,,,,,,,,,,,,,,,,,,,,,,,,,,,,,,,,,,,,,,,,,,,,,pilot_4,001,2019_Nov_06_1712,test_final,3.1.5,60.036045650691584,
,,,,,,,,,,,,,,,,,,,,1,0,1,0,1,0,1,0,,,,,,,,,,,,,,,,,,,,,,,,,,,,,,,,,,,,,,,,,,,,,,,,,,,,,,,,,,,,,,,,,,,,,,,,,,,,,,,,,,,,,380.12968979997095,None,,,,,,,,,,,,,,,,,,,,,,,,,,,,,,,,,,,,,,,,,,,,,,,,,,,,,,,pilot_4,001,2019_Nov_06_1712,test_final,3.1.5,60.036045650691584,
,,,,,,,,,,,,,,,,,,,,1,0,1,0,,,,,,,,,,,,,,,,,,,,,,,,,,,,,,,,,,,,,,,,,,,,,,,,,,,,,,,,,,,,,,,,,,,,,,,,,,,,,,,,,,,,,,,,,,,zl,"['z', 'l']",0,"[1.480007799982559, 1.7626121999928728, 2.167731499997899]",381.3950155999628,None,381.3950155999628,None,381.3950155999628,None,1,384.1256775999791,None,,,,,,,,,,,,,,,,,,,,,,,,,,,,,,,,,,,,,,,,,,pilot_4,001,2019_Nov_06_1712,test_final,3.1.5,60.036045650691584,
Practice,6,(2x6) - 8,4,,,,,,,,,,,,,,,,,2,0,2,0,0,0,0,0,0,0,0,5,,,,,,,,,,,,,,,,,,,,,,,,,,,,,,,,,,,,,,4,,,,,,,,,,,,,,,,,,,,,,,,,,,385.74095639999723,None,['4'],0,[1.924555700039491],385.74095639999723,None,385.74095639999723,None,385.74095639999723,None,1,387.84771739999996,None,387.84771739999996,None,,,,,,,,,,,,,,,,,,,,,,,,,,,,,,,,,,,,,,,,,,,,,,,,,,,,,,,,,pilot_4,001,2019_Nov_06_1712,test_final,3.1.5,60.036045650691584,
,,,,,,,,,,,,,,,,,,,,2,0,2,0,0,0,0,0,,,,,,,,,,,,,,,,,,,,,,,,,,,,,,,,,,,,,,,,,,,,,,,,,,,,,,,,,,,,,,,,,,,,,,,,,,,,,,,,,,,,,389.2040012999787,None,,,,,,,,,,,,,,,,,,,,,,,,,,,,,,,,,,,,,,,,,,,,,,,,,,,,,,,pilot_4,001,2019_Nov_06_1712,test_final,3.1.5,60.036045650691584,
Practice,3,(7x2) - 5,9,,,,,,,,,,,,,,,,,2,0,2,0,1,0,1,0,0,0,0,2,,,,,,,,,,,,,,,,,,,,,,,,,,,,,,,,,,,,,,9,,,,,,,,,,,,,,,,,,,,,,,,,,,390.53616199997487,None,['9'],0,[2.0068531000288203],390.53616199997487,None,390.53616199997487,None,390.53616199997487,None,1,392.729119799973,None,392.729119799973,None,,,,,,,,,,,,,,,,,,,,,,,,,,,,,,,,,,,,,,,,,,,,,,,,,,,,,,,,,pilot_4,001,2019_Nov_06_1712,test_final,3.1.5,60.036045650691584,
,,,,,,,,,,,,,,,,,,,,2,0,2,0,1,0,1,0,,,,,,,,,,,,,,,,,,,,,,,,,,,,,,,,,,,,,,,,,,,,,,,,,,,,,,,,,,,,,,,,,,,,,,,,,,,,,,,,,,,,,394.1158046000055,None,,,,,,,,,,,,,,,,,,,,,,,,,,,,,,,,,,,,,,,,,,,,,,,,,,,,,,,pilot_4,001,2019_Nov_06_1712,test_final,3.1.5,60.036045650691584,
,,,,,,,,,,,,,,,,,,,,2,0,2,0,,,,,,,,,,,,,,,,,,,,,,,,,,,,,,,,,,,,,,,,,,,,,,,,,,,,,,,,,,,,,,,,,,,,,,,,,,,,,,,,,,,,,,,,,,,vt,"['v', 't']",0,"[0.7830276999738999, 1.0456777000217699, 1.3008051000069827]",395.3314292000141,None,395.3314292000141,None,395.3314292000141,None,1,397.2129453999805,None,,,,,,,,,,,,,,,,,,,,,,,,,,,,,,,,,,,,,,,,,,pilot_4,001,2019_Nov_06_1712,test_final,3.1.5,60.036045650691584,
,,,,,,,,,,,,,,,,,,,,,,,,,,,,,,,,,,,,,,,,,,,,,,,,,,,,,,,,,,,,,,,,,,,,,,,,,,,,,,,,,,,,,,,,,,,,,,,,,,,,,,,,,,,,,,,,,,,,,,,,,,,,,,,398.72871339996345,None,space,14.072891199961305,398.72871339996345,None,,,,,,,,,,,,,,,,,,,,,,,,,,,,,,,,,,,,pilot_4,001,2019_Nov_06_1712,test_final,3.1.5,60.036045650691584,
Practice,6,(2x6) - 8,4,,,,,,,,,,,,,,,,,,,,,,,,,,,,,0,0,0,0,0,0,0,0,0,0,0,5,,,,,,,,,,,,,,,,,,,,,,,,,,4,,,,,,,,,,,,,,,,,,,,,,,,,,,,,,,,,,,,,,1,,,,,,,,,,,,,,,,,,,,,,,,,,413.4485910999938,None,['4'],0,[1.5421784999780357],413.4485910999938,None,413.4485910999938,None,413.4485910999938,None,415.19343939999817,None,415.19343939999817,None,,,,,,,,,,,,,,,,,,,,,pilot_4,001,2019_Nov_06_1712,test_final,3.1.5,60.036045650691584,
,,,,,,,,,,,,,,,,,,,,,,,,,,,,,,,,0,0,0,0,0,0,0,0,,,,,,,,,,,,,,,,,,,,,,,,,,,,,,,,,,,,,,,,,,,,,,,,,,,,,,,,,,,,,,,,,,,,,,,,,,,,,,,,,,,,,,,,,,,,,,,,,,,,,,,,,,,,,416.5439764999901,None,,,,,,,,,,,,,,,,,,,pilot_4,001,2019_Nov_06_1712,test_final,3.1.5,60.036045650691584,
Practice,10,(8/4) + 3,5,,,,,,,,,,,,,,,,,,,,,,,,,,,,,0,0,0,0,1,0,1,0,0,0,0,9,,,,,,,,,,,,,,,,,,,,,,,,,,5,,,,,,,,,,,,,,,,,,,,,,,,,,,,,,,,,,,,,,1,,,,,,,,,,,,,,,,,,,,,,,,,,417.8758014999912,None,['5'],0,[1.312516100006178],417.8758014999912,None,417.8758014999912,None,417.8758014999912,None,419.3448102999828,None,419.3448102999828,None,,,,,,,,,,,,,,,,,,,,,pilot_4,001,2019_Nov_06_1712,test_final,3.1.5,60.036045650691584,
,,,,,,,,,,,,,,,,,,,,,,,,,,,,,,,,0,0,0,0,1,0,1,0,,,,,,,,,,,,,,,,,,,,,,,,,,,,,,,,,,,,,,,,,,,,,,,,,,,,,,,,,,,,,,,,,,,,,,,,,,,,,,,,,,,,,,,,,,,,,,,,,,,,,,,,,,,,,420.7230770000024,None,,,,,,,,,,,,,,,,,,,pilot_4,001,2019_Nov_06_1712,test_final,3.1.5,60.036045650691584,
,,,,,,,,,,,,,,,,,,,,,,,,,,,,,,,,0,0,0,0,,,,,,,,,,,,,,,,,,,,,,,,,,,,,,,,,,,,,,,,,,,,,,,,,,,,,,,,,,,,,,,,,,,,,,,,,,,,,,,,,,,,,,,,,,,,,,,,,,,,,,,,,,,,,,,,,,,qh,"['q', 'h']",0,"[0.3510085999732837, 0.6219154000282288, 1.0440810000291094]",421.971948899969,None,421.971948899969,None,1,QH,421.971948899969,None,,,,,,,pilot_4,001,2019_Nov_06_1712,test_final,3.1.5,60.036045650691584,
Practice,12,(8/2) + 4,8,,,,,,,,,,,,,,,,,,,,,,,,,,,,,1,0,1,0,0,0,0,0,0,0,0,11,,,,,,,,,,,,,,,,,,,,,,,,,,6,,,,,,,,,,,,,,,,,,,,,,,,,,,,,,,,,,,,,,0,,,,,,,,,,,,,,,,,,,,,,,,,,423.6202971999883,None,['6'],0,[3.234972200007178],423.6202971999883,None,423.6202971999883,None,423.6202971999883,None,427.04365730000427,None,427.04365730000427,None,,,,,,,,,,,,,,,,,,,,,pilot_4,001,2019_Nov_06_1712,test_final,3.1.5,60.036045650691584,
Practice,5,(3/3) + 2,3,,,,,,,,,,,,,,,,,,,,,,,,,,,,,1,0,1,0,0,0,0,0,0,1,1,4,,,,,,,,,,,,,,,,,,,,,,,,,,3,,,,,,,,,,,,,,,,,,,,,,,,,,,,,,,,,,,,,,1,,,,,,,,,,,,,,,,,,,,,,,,,,428.3825396000175,None,['3'],0,[1.5743429000140168],428.3825396000175,None,428.3825396000175,None,428.3825396000175,None,430.09977739996975,None,430.09977739996975,None,,,,,,,,,,,,,,,,,,,,,pilot_4,001,2019_Nov_06_1712,test_final,3.1.5,60.036045650691584,
,,,,,,,,,,,,,,,,,,,,,,,,,,,,,,,,1,0,1,0,0,0,0,0,,,,,,,,,,,,,,,,,,,,,,,,,,,,,,,,,,,,,,,,,,,,,,,,,,,,,,,,,,,,,,,,,,,,,,,,,,,,,,,,,,,,,,,,,,,,,,,,,,,,,,,,,,,,,431.4127557000029,None,,,,,,,,,,,,,,,,,,,pilot_4,001,2019_Nov_06_1712,test_final,3.1.5,60.036045650691584,
Practice,12,(8/2) + 4,8,,,,,,,,,,,,,,,,,,,,,,,,,,,,,1,0,1,0,1,0,1,0,0,0,0,11,,,,,,,,,,,,,,,,,,,,,,,,,,8,,,,,,,,,,,,,,,,,,,,,,,,,,,,,,,,,,,,,,1,,,,,,,,,,,,,,,,,,,,,,,,,,432.77802919998066,None,['8'],0,[4.644680999976117],432.77802919998066,None,432.77802919998066,None,432.77802919998066,None,437.6288688000059,None,437.6288688000059,None,,,,,,,,,,,,,,,,,,,,,pilot_4,001,2019_Nov_06_1712,test_final,3.1.5,60.036045650691584,
,,,,,,,,,,,,,,,,,,,,,,,,,,,,,,,,1,0,1,0,1,0,1,0,,,,,,,,,,,,,,,,,,,,,,,,,,,,,,,,,,,,,,,,,,,,,,,,,,,,,,,,,,,,,,,,,,,,,,,,,,,,,,,,,,,,,,,,,,,,,,,,,,,,,,,,,,,,,438.9882017999771,None,,,,,,,,,,,,,,,,,,,pilot_4,001,2019_Nov_06_1712,test_final,3.1.5,60.036045650691584,
Practice,9,(4/2) + 5,7,,,,,,,,,,,,,,,,,,,,,,,,,,,,,1,0,1,0,2,0,2,0,0,0,0,8,,,,,,,,,,,,,,,,,,,,,,,,,,7,,,,,,,,,,,,,,,,,,,,,,,,,,,,,,,,,,,,,,1,,,,,,,,,,,,,,,,,,,,,,,,,,440.27009539998835,None,['7'],0,[3.061117600009311],440.27009539998835,None,440.27009539998835,None,440.27009539998835,None,443.5223957999842,None,443.5223957999842,None,,,,,,,,,,,,,,,,,,,,,pilot_4,001,2019_Nov_06_1712,test_final,3.1.5,60.036045650691584,
,,,,,,,,,,,,,,,,,,,,,,,,,,,,,,,,1,0,1,0,2,0,2,0,,,,,,,,,,,,,,,,,,,,,,,,,,,,,,,,,,,,,,,,,,,,,,,,,,,,,,,,,,,,,,,,,,,,,,,,,,,,,,,,,,,,,,,,,,,,,,,,,,,,,,,,,,,,,444.8655471999664,None,,,,,,,,,,,,,,,,,,,pilot_4,001,2019_Nov_06_1712,test_final,3.1.5,60.036045650691584,
,,,,,,,,,,,,,,,,,,,,,,,,,,,,,,,,1,0,1,0,,,,,,,,,,,,,,,,,,,,,,,,,,,,,,,,,,,,,,,,,,,,,,,,,,,,,,,,,,,,,,,,,,,,,,,,,,,,,,,,,,,,,,,,,,,,,,,,,,,,,,,,,,,,,,,,,,,ksq,"['k', 's', 'q']",0,"[0.3922221999964677, 0.6824767999933101, 0.9667224999866448, 1.3121315999887884]",446.1147709999932,None,446.1147709999932,None,1,KSQ,446.1147709999932,None,,,,,,,pilot_4,001,2019_Nov_06_1712,test_final,3.1.5,60.036045650691584,
Practice,7,(4x6) - 17,7,,,,,,,,,,,,,,,,,,,,,,,,,,,,,2,0,2,0,0,0,0,0,0,0,0,6,,,,,,,,,,,,,,,,,,,,,,,,,,7,,,,,,,,,,,,,,,,,,,,,,,,,,,,,,,,,,,,,,1,,,,,,,,,,,,,,,,,,,,,,,,,,448.062829100003,None,['7'],0,[3.1593804999720305],448.062829100003,None,448.062829100003,None,448.062829100003,None,451.37796020001406,None,451.37796020001406,None,,,,,,,,,,,,,,,,,,,,,pilot_4,001,2019_Nov_06_1712,test_final,3.1.5,60.036045650691584,
,,,,,,,,,,,,,,,,,,,,,,,,,,,,,,,,2,0,2,0,0,0,0,0,,,,,,,,,,,,,,,,,,,,,,,,,,,,,,,,,,,,,,,,,,,,,,,,,,,,,,,,,,,,,,,,,,,,,,,,,,,,,,,,,,,,,,,,,,,,,,,,,,,,,,,,,,,,,452.70828149997396,None,,,,,,,,,,,,,,,,,,,pilot_4,001,2019_Nov_06_1712,test_final,3.1.5,60.036045650691584,
Practice,8,(3/3) + 5,6,,,,,,,,,,,,,,,,,,,,,,,,,,,,,2,0,2,0,1,0,1,0,0,0,0,7,,,,,,,,,,,,,,,,,,,,,,,,,,6,,,,,,,,,,,,,,,,,,,,,,,,,,,,,,,,,,,,,,1,,,,,,,,,,,,,,,,,,,,,,,,,,454.00676239997847,None,['6'],0,[1.4902805999736302],454.00676239997847,None,454.00676239997847,None,454.00676239997847,None,455.6683222000138,None,455.6683222000138,None,,,,,,,,,,,,,,,,,,,,,pilot_4,001,2019_Nov_06_1712,test_final,3.1.5,60.036045650691584,
,,,,,,,,,,,,,,,,,,,,,,,,,,,,,,,,2,0,2,0,1,0,1,0,,,,,,,,,,,,,,,,,,,,,,,,,,,,,,,,,,,,,,,,,,,,,,,,,,,,,,,,,,,,,,,,,,,,,,,,,,,,,,,,,,,,,,,,,,,,,,,,,,,,,,,,,,,,,457.00385019998066,None,,,,,,,,,,,,,,,,,,,pilot_4,001,2019_Nov_06_1712,test_final,3.1.5,60.036045650691584,
Practice,2,(1/1) - 1,0,,,,,,,,,,,,,,,,,,,,,,,,,,,,,2,0,2,0,2,0,2,0,0,0,0,1,,,,,,,,,,,,,,,,,,,,,,,,,,0,,,,,,,,,,,,,,,,,,,,,,,,,,,,,,,,,,,,,,1,,,,,,,,,,,,,,,,,,,,,,,,,,458.3191719999886,None,['0'],0,[2.05334009998478],458.3191719999886,None,458.3191719999886,None,458.3191719999886,None,460.5595703999861,None,460.5595703999861,None,,,,,,,,,,,,,,,,,,,,,pilot_4,001,2019_Nov_06_1712,test_final,3.1.5,60.036045650691584,
,,,,,,,,,,,,,,,,,,,,,,,,,,,,,,,,2,0,2,0,2,0,2,0,,,,,,,,,,,,,,,,,,,,,,,,,,,,,,,,,,,,,,,,,,,,,,,,,,,,,,,,,,,,,,,,,,,,,,,,,,,,,,,,,,,,,,,,,,,,,,,,,,,,,,,,,,,,,461.91600249998737,None,,,,,,,,,,,,,,,,,,,pilot_4,001,2019_Nov_06_1712,test_final,3.1.5,60.036045650691584,
Practice,9,(4/2) + 5,7,,,,,,,,,,,,,,,,,,,,,,,,,,,,,2,0,2,0,3,0,3,0,0,0,0,8,,,,,,,,,,,,,,,,,,,,,,,,,,7,,,,,,,,,,,,,,,,,,,,,,,,,,,,,,,,,,,,,,1,,,,,,,,,,,,,,,,,,,,,,,,,,463.24806670000544,None,['7'],0,[3.1077470000018366],463.24806670000544,None,463.24806670000544,None,463.24806670000544,None,466.5659001999884,None,466.5659001999884,None,,,,,,,,,,,,,,,,,,,,,pilot_4,001,2019_Nov_06_1712,test_final,3.1.5,60.036045650691584,
,,,,,,,,,,,,,,,,,,,,,,,,,,,,,,,,2,0,2,0,3,0,3,0,,,,,,,,,,,,,,,,,,,,,,,,,,,,,,,,,,,,,,,,,,,,,,,,,,,,,,,,,,,,,,,,,,,,,,,,,,,,,,,,,,,,,,,,,,,,,,,,,,,,,,,,,,,,,467.89352959999815,None,,,,,,,,,,,,,,,,,,,pilot_4,001,2019_Nov_06_1712,test_final,3.1.5,60.036045650691584,
,,,,,,,,,,,,,,,,,,,,,,,,,,,,,,,,2,0,2,0,,,,,,,,,,,,,,,,,,,,,,,,,,,,,,,,,,,,,,,,,,,,,,,,,,,,,,,,,,,,,,,,,,,,,,,,,,,,,,,,,,,,,,,,,,,,,,,,,,,,,,,,,,,,,,,,,,,nljvk,"['n', 'l', 'j', 'v', 'k']",0,"[-4.772223700012546, 1.6606882000342011, 1.9811394000425935, 2.9659651000401936, 3.6683081000228412, 4.006779399991501, 5.715483400039375, 8.841411100002006, 9.307148299994878, 9.593739200034179]",469.1425062000053,None,469.1425062000053,None,0,NLJV,469.1425062000053,None,,,,,,,pilot_4,001,2019_Nov_06_1712,test_final,3.1.5,60.036045650691584,
Practice,5,(3/3) + 2,3,,,,,,,,,,,,,,,,,,,,,,,,,,,,,3,0,3,0,0,0,0,0,0,0,0,4,,,,,,,,,,,,,,,,,,,,,,,,,,3,,,,,,,,,,,,,,,,,,,,,,,,,,,,,,,,,,,,,,1,,,,,,,,,,,,,,,,,,,,,,,,,,479.38249649998033,None,['3'],0,[1.4760300000198185],479.38249649998033,None,479.38249649998033,None,479.38249649998033,None,481.0590285999933,None,481.0590285999933,None,,,,,,,,,,,,,,,,,,,,,pilot_4,001,2019_Nov_06_1712,test_final,3.1.5,60.036045650691584,
,,,,,,,,,,,,,,,,,,,,,,,,,,,,,,,,3,0,3,0,0,0,0,0,,,,,,,,,,,,,,,,,,,,,,,,,,,,,,,,,,,,,,,,,,,,,,,,,,,,,,,,,,,,,,,,,,,,,,,,,,,,,,,,,,,,,,,,,,,,,,,,,,,,,,,,,,,,,482.39598129998194,None,,,,,,,,,,,,,,,,,,,pilot_4,001,2019_Nov_06_1712,test_final,3.1.5,60.036045650691584,
Practice,12,(8/2) + 4,8,,,,,,,,,,,,,,,,,,,,,,,,,,,,,3,0,3,0,1,0,1,0,0,0,0,11,,,,,,,,,,,,,,,,,,,,,,,,,,6,,,,,,,,,,,,,,,,,,,,,,,,,,,,,,,,,,,,,,0,,,,,,,,,,,,,,,,,,,,,,,,,,483.72816880000755,None,['6'],0,[1.8048110000090674],483.72816880000755,None,483.72816880000755,None,483.72816880000755,None,485.75679710000986,None,485.75679710000986,None,,,,,,,,,,,,,,,,,,,,,pilot_4,001,2019_Nov_06_1712,test_final,3.1.5,60.036045650691584,
Practice,5,(3/3) + 2,3,,,,,,,,,,,,,,,,,,,,,,,,,,,,,3,0,3,0,1,0,1,0,0,1,1,4,,,,,,,,,,,,,,,,,,,,,,,,,,3,,,,,,,,,,,,,,,,,,,,,,,,,,,,,,,,,,,,,,1,,,,,,,,,,,,,,,,,,,,,,,,,,487.1413273999933,None,['3'],0,[1.6711737000150606],487.1413273999933,None,487.1413273999933,None,487.1413273999933,None,488.9541324999882,None,488.9541324999882,None,,,,,,,,,,,,,,,,,,,,,pilot_4,001,2019_Nov_06_1712,test_final,3.1.5,60.036045650691584,
,,,,,,,,,,,,,,,,,,,,,,,,,,,,,,,,3,0,3,0,1,0,1,0,,,,,,,,,,,,,,,,,,,,,,,,,,,,,,,,,,,,,,,,,,,,,,,,,,,,,,,,,,,,,,,,,,,,,,,,,,,,,,,,,,,,,,,,,,,,,,,,,,,,,,,,,,,,,490.2715809000074,None,,,,,,,,,,,,,,,,,,,pilot_4,001,2019_Nov_06_1712,test_final,3.1.5,60.036045650691584,
Practice,7,(4x6) - 17,7,,,,,,,,,,,,,,,,,,,,,,,,,,,,,3,0,3,0,2,0,2,0,0,0,0,6,,,,,,,,,,,,,,,,,,,,,,,,,,7,,,,,,,,,,,,,,,,,,,,,,,,,,,,,,,,,,,,,,1,,,,,,,,,,,,,,,,,,,,,,,,,,491.65379790001316,None,['7'],0,[1.5522071999730542],491.65379790001316,None,491.65379790001316,None,491.65379790001316,None,493.44279679999454,None,493.44279679999454,None,,,,,,,,,,,,,,,,,,,,,pilot_4,001,2019_Nov_06_1712,test_final,3.1.5,60.036045650691584,
,,,,,,,,,,,,,,,,,,,,,,,,,,,,,,,,3,0,3,0,2,0,2,0,,,,,,,,,,,,,,,,,,,,,,,,,,,,,,,,,,,,,,,,,,,,,,,,,,,,,,,,,,,,,,,,,,,,,,,,,,,,,,,,,,,,,,,,,,,,,,,,,,,,,,,,,,,,,494.7338202999672,None,,,,,,,,,,,,,,,,,,,pilot_4,001,2019_Nov_06_1712,test_final,3.1.5,60.036045650691584,
Practice,6,(2x6) - 8,4,,,,,,,,,,,,,,,,,,,,,,,,,,,,,3,0,3,0,3,0,3,0,0,0,0,5,,,,,,,,,,,,,,,,,,,,,,,,,,4,,,,,,,,,,,,,,,,,,,,,,,,,,,,,,,,,,,,,,1,,,,,,,,,,,,,,,,,,,,,,,,,,496.09920689999126,None,['4'],0,[1.3739735000417568],496.09920689999126,None,496.09920689999126,None,496.09920689999126,None,497.6599213000154,None,497.6599213000154,None,,,,,,,,,,,,,,,,,,,,,pilot_4,001,2019_Nov_06_1712,test_final,3.1.5,60.036045650691584,
,,,,,,,,,,,,,,,,,,,,,,,,,,,,,,,,3,0,3,0,3,0,3,0,,,,,,,,,,,,,,,,,,,,,,,,,,,,,,,,,,,,,,,,,,,,,,,,,,,,,,,,,,,,,,,,,,,,,,,,,,,,,,,,,,,,,,,,,,,,,,,,,,,,,,,,,,,,,499.02960439998424,None,,,,,,,,,,,,,,,,,,,pilot_4,001,2019_Nov_06_1712,test_final,3.1.5,60.036045650691584,
,,,,,,,,,,,,,,,,,,,,,,,,,,,,,,,,3,0,3,0,,,,,,,,,,,,,,,,,,,,,,,,,,,,,,,,,,,,,,,,,,,,,,,,,,,,,,,,,,,,,,,,,,,,,,,,,,,,,,,,,,,,,,,,,,,,,,,,,,,,,,,,,,,,,,,,,,,vntx,"['v', 'n', 't', 'x']",0,"[1.4729670000378974, 1.7016011000378057, 1.9124010000377893, 2.1877463000128046, 2.4818794000311755]",500.2620436999714,None,500.2620436999714,None,1,VNTX,500.2620436999714,None,,,,,,,pilot_4,001,2019_Nov_06_1712,test_final,3.1.5,60.036045650691584,
Practice,15,(9/3) - 2,1,,,,,,,,,,,,,,,,,,,,,,,,,,,,,4,0,4,0,0,0,0,0,0,0,0,14,,,,,,,,,,,,,,,,,,,,,,,,,,1,,,,,,,,,,,,,,,,,,,,,,,,,,,,,,,,,,,,,,1,,,,,,,,,,,,,,,,,,,,,,,,,,503.3420713999658,None,['1'],0,[1.8491031999583356],503.3420713999658,None,503.3420713999658,None,503.3420713999658,None,505.3457041999791,None,505.3457041999791,None,,,,,,,,,,,,,,,,,,,,,pilot_4,001,2019_Nov_06_1712,test_final,3.1.5,60.036045650691584,
,,,,,,,,,,,,,,,,,,,,,,,,,,,,,,,,4,0,4,0,0,0,0,0,,,,,,,,,,,,,,,,,,,,,,,,,,,,,,,,,,,,,,,,,,,,,,,,,,,,,,,,,,,,,,,,,,,,,,,,,,,,,,,,,,,,,,,,,,,,,,,,,,,,,,,,,,,,,506.7053947999957,None,,,,,,,,,,,,,,,,,,,pilot_4,001,2019_Nov_06_1712,test_final,3.1.5,60.036045650691584,
Practice,8,(3/3) + 5,6,,,,,,,,,,,,,,,,,,,,,,,,,,,,,4,0,4,0,1,0,1,0,0,0,0,7,,,,,,,,,,,,,,,,,,,,,,,,,,6,,,,,,,,,,,,,,,,,,,,,,,,,,,,,,,,,,,,,,1,,,,,,,,,,,,,,,,,,,,,,,,,,508.0374785999884,None,['6'],0,[1.8520949000376277],508.0374785999884,None,508.0374785999884,None,508.0374785999884,None,510.10005419998197,None,510.10005419998197,None,,,,,,,,,,,,,,,,,,,,,pilot_4,001,2019_Nov_06_1712,test_final,3.1.5,60.036045650691584,
,,,,,,,,,,,,,,,,,,,,,,,,,,,,,,,,4,0,4,0,1,0,1,0,,,,,,,,,,,,,,,,,,,,,,,,,,,,,,,,,,,,,,,,,,,,,,,,,,,,,,,,,,,,,,,,,,,,,,,,,,,,,,,,,,,,,,,,,,,,,,,,,,,,,,,,,,,,,511.43394259997876,None,,,,,,,,,,,,,,,,,,,pilot_4,001,2019_Nov_06_1712,test_final,3.1.5,60.036045650691584,
Practice,14,(6/3) + 4 ,6,,,,,,,,,,,,,,,,,,,,,,,,,,,,,4,0,4,0,2,0,2,0,0,0,0,13,,,,,,,,,,,,,,,,,,,,,,,,,,6,,,,,,,,,,,,,,,,,,,,,,,,,,,,,,,,,,,,,,1,,,,,,,,,,,,,,,,,,,,,,,,,,512.7324737000163,None,['6'],0,[2.8112214999855496],512.7324737000163,None,512.7324737000163,None,512.7324737000163,None,515.7574862000183,None,515.7574862000183,None,,,,,,,,,,,,,,,,,,,,,pilot_4,001,2019_Nov_06_1712,test_final,3.1.5,60.036045650691584,
,,,,,,,,,,,,,,,,,,,,,,,,,,,,,,,,4,0,4,0,2,0,2,0,,,,,,,,,,,,,,,,,,,,,,,,,,,,,,,,,,,,,,,,,,,,,,,,,,,,,,,,,,,,,,,,,,,,,,,,,,,,,,,,,,,,,,,,,,,,,,,,,,,,,,,,,,,,,517.0947759000119,None,,,,,,,,,,,,,,,,,,,pilot_4,001,2019_Nov_06_1712,test_final,3.1.5,60.036045650691584,
Practice,8,(3/3) + 5,6,,,,,,,,,,,,,,,,,,,,,,,,,,,,,4,0,4,0,3,0,3,0,0,0,0,7,,,,,,,,,,,,,,,,,,,,,,,,,,6,,,,,,,,,,,,,,,,,,,,,,,,,,,,,,,,,,,,,,1,,,,,,,,,,,,,,,,,,,,,,,,,,518.3935898999916,None,['6'],0,[2.1311849000048824],518.3935898999916,None,518.3935898999916,None,518.3935898999916,None,520.7155566000147,None,520.7155566000147,None,,,,,,,,,,,,,,,,,,,,,pilot_4,001,2019_Nov_06_1712,test_final,3.1.5,60.036045650691584,
,,,,,,,,,,,,,,,,,,,,,,,,,,,,,,,,4,0,4,0,3,0,3,0,,,,,,,,,,,,,,,,,,,,,,,,,,,,,,,,,,,,,,,,,,,,,,,,,,,,,,,,,,,,,,,,,,,,,,,,,,,,,,,,,,,,,,,,,,,,,,,,,,,,,,,,,,,,,522.073854999966,None,,,,,,,,,,,,,,,,,,,pilot_4,001,2019_Nov_06_1712,test_final,3.1.5,60.036045650691584,
Practice,2,(1/1) - 1,0,,,,,,,,,,,,,,,,,,,,,,,,,,,,,4,0,4,0,4,0,4,0,0,0,0,1,,,,,,,,,,,,,,,,,,,,,,,,,,0,,,,,,,,,,,,,,,,,,,,,,,,,,,,,,,,,,,,,,1,,,,,,,,,,,,,,,,,,,,,,,,,,523.3892201000126,None,['0'],0,[1.9885932999895886],523.3892201000126,None,523.3892201000126,None,523.3892201000126,None,525.6017388000037,None,525.6017388000037,None,,,,,,,,,,,,,,,,,,,,,pilot_4,001,2019_Nov_06_1712,test_final,3.1.5,60.036045650691584,
,,,,,,,,,,,,,,,,,,,,,,,,,,,,,,,,4,0,4,0,4,0,4,0,,,,,,,,,,,,,,,,,,,,,,,,,,,,,,,,,,,,,,,,,,,,,,,,,,,,,,,,,,,,,,,,,,,,,,,,,,,,,,,,,,,,,,,,,,,,,,,,,,,,,,,,,,,,,526.9522166000097,None,,,,,,,,,,,,,,,,,,,pilot_4,001,2019_Nov_06_1712,test_final,3.1.5,60.036045650691584,
,,,,,,,,,,,,,,,,,,,,,,,,,,,,,,,,4,0,4,0,,,,,,,,,,,,,,,,,,,,,,,,,,,,,,,,,,,,,,,,,,,,,,,,,,,,,,,,,,,,,,,,,,,,,,,,,,,,,,,,,,,,,,,,,,,,,,,,,,,,,,,,,,,,,,,,,,,nktvr,"['n', 'k', 't', 'v', 'r']",0,"[0.44179349998012185, 0.6573567999876104, 1.182316999998875, 1.4105955999693833, 1.9675646999967285, 2.693856899975799]",528.2010631000157,None,528.2010631000157,None,1,NKTVR,528.2010631000157,None,,,,,,,pilot_4,001,2019_Nov_06_1712,test_final,3.1.5,60.036045650691584,
Practice,2,(1/1) - 1,0,,,,,,,,,,,,,,,,,,,,,,,,,,,,,5,0,5,0,0,0,0,0,0,0,0,1,,,,,,,,,,,,,,,,,,,,,,,,,,0,,,,,,,,,,,,,,,,,,,,,,,,,,,,,,,,,,,,,,1,,,,,,,,,,,,,,,,,,,,,,,,,,531.4978115999838,None,['0'],0,[1.285565999976825],531.4978115999838,None,531.4978115999838,None,531.4978115999838,None,532.9965656999848,None,532.9965656999848,None,,,,,,,,,,,,,,,,,,,,,pilot_4,001,2019_Nov_06_1712,test_final,3.1.5,60.036045650691584,
,,,,,,,,,,,,,,,,,,,,,,,,,,,,,,,,5,0,5,0,0,0,0,0,,,,,,,,,,,,,,,,,,,,,,,,,,,,,,,,,,,,,,,,,,,,,,,,,,,,,,,,,,,,,,,,,,,,,,,,,,,,,,,,,,,,,,,,,,,,,,,,,,,,,,,,,,,,,534.3615845000022,None,,,,,,,,,,,,,,,,,,,pilot_4,001,2019_Nov_06_1712,test_final,3.1.5,60.036045650691584,
Practice,14,(6/3) + 4 ,6,,,,,,,,,,,,,,,,,,,,,,,,,,,,,5,0,5,0,1,0,1,0,0,0,0,13,,,,,,,,,,,,,,,,,,,,,,,,,,6,,,,,,,,,,,,,,,,,,,,,,,,,,,,,,,,,,,,,,1,,,,,,,,,,,,,,,,,,,,,,,,,,535.6769907000125,None,['6'],0,[3.8683568999986164],535.6769907000125,None,535.6769907000125,None,535.6769907000125,None,539.7352823999827,None,539.7352823999827,None,,,,,,,,,,,,,,,,,,,,,pilot_4,001,2019_Nov_06_1712,test_final,3.1.5,60.036045650691584,
,,,,,,,,,,,,,,,,,,,,,,,,,,,,,,,,5,0,5,0,1,0,1,0,,,,,,,,,,,,,,,,,,,,,,,,,,,,,,,,,,,,,,,,,,,,,,,,,,,,,,,,,,,,,,,,,,,,,,,,,,,,,,,,,,,,,,,,,,,,,,,,,,,,,,,,,,,,,541.0885667999974,None,,,,,,,,,,,,,,,,,,,pilot_4,001,2019_Nov_06_1712,test_final,3.1.5,60.036045650691584,
Practice,12,(8/2) + 4,8,,,,,,,,,,,,,,,,,,,,,,,,,,,,,5,0,5,0,2,0,2,0,0,0,0,11,,,,,,,,,,,,,,,,,,,,,,,,,,8,,,,,,,,,,,,,,,,,,,,,,,,,,,,,,,,,,,,,,1,,,,,,,,,,,,,,,,,,,,,,,,,,542.4370860999916,None,['8'],0,[3.4783266999875195],542.4370860999916,None,542.4370860999916,None,542.4370860999916,None,546.0972902000067,None,546.0972902000067,None,,,,,,,,,,,,,,,,,,,,,pilot_4,001,2019_Nov_06_1712,test_final,3.1.5,60.036045650691584,
,,,,,,,,,,,,,,,,,,,,,,,,,,,,,,,,5,0,5,0,2,0,2,0,,,,,,,,,,,,,,,,,,,,,,,,,,,,,,,,,,,,,,,,,,,,,,,,,,,,,,,,,,,,,,,,,,,,,,,,,,,,,,,,,,,,,,,,,,,,,,,,,,,,,,,,,,,,,547.4655371999834,None,,,,,,,,,,,,,,,,,,,pilot_4,001,2019_Nov_06_1712,test_final,3.1.5,60.036045650691584,
Practice,13,(3x8) - 19 ,5,,,,,,,,,,,,,,,,,,,,,,,,,,,,,5,0,5,0,3,0,3,0,0,0,0,12,,,,,,,,,,,,,,,,,,,,,,,,,,5,,,,,,,,,,,,,,,,,,,,,,,,,,,,,,,,,,,,,,1,,,,,,,,,,,,,,,,,,,,,,,,,,548.7809253999731,None,['5'],0,[7.069335600011982],548.7809253999731,None,548.7809253999731,None,548.7809253999731,None,556.1952645999845,None,556.1952645999845,None,,,,,,,,,,,,,,,,,,,,,pilot_4,001,2019_Nov_06_1712,test_final,3.1.5,60.036045650691584,
,,,,,,,,,,,,,,,,,,,,,,,,,,,,,,,,5,0,5,0,3,0,3,0,,,,,,,,,,,,,,,,,,,,,,,,,,,,,,,,,,,,,,,,,,,,,,,,,,,,,,,,,,,,,,,,,,,,,,,,,,,,,,,,,,,,,,,,,,,,,,,,,,,,,,,,,,,,,557.5550193999661,None,,,,,,,,,,,,,,,,,,,pilot_4,001,2019_Nov_06_1712,test_final,3.1.5,60.036045650691584,
Practice,8,(3/3) + 5,6,,,,,,,,,,,,,,,,,,,,,,,,,,,,,5,0,5,0,4,0,4,0,0,0,0,7,,,,,,,,,,,,,,,,,,,,,,,,,,6,,,,,,,,,,,,,,,,,,,,,,,,,,,,,,,,,,,,,,1,,,,,,,,,,,,,,,,,,,,,,,,,,558.821193700016,None,['6'],0,[2.661506299977191],558.821193700016,None,558.821193700016,None,558.821193700016,None,561.6585357000004,None,561.6585357000004,None,,,,,,,,,,,,,,,,,,,,,pilot_4,001,2019_Nov_06_1712,test_final,3.1.5,60.036045650691584,
,,,,,,,,,,,,,,,,,,,,,,,,,,,,,,,,5,0,5,0,4,0,4,0,,,,,,,,,,,,,,,,,,,,,,,,,,,,,,,,,,,,,,,,,,,,,,,,,,,,,,,,,,,,,,,,,,,,,,,,,,,,,,,,,,,,,,,,,,,,,,,,,,,,,,,,,,,,,563.0501226999913,None,,,,,,,,,,,,,,,,,,,pilot_4,001,2019_Nov_06_1712,test_final,3.1.5,60.036045650691584,
Practice,15,(9/3) - 2,1,,,,,,,,,,,,,,,,,,,,,,,,,,,,,5,0,5,0,5,0,5,0,0,0,0,14,,,,,,,,,,,,,,,,,,,,,,,,,,1,,,,,,,,,,,,,,,,,,,,,,,,,,,,,,,,,,,,,,1,,,,,,,,,,,,,,,,,,,,,,,,,,564.3488821999636,None,['1'],0,[3.069724800006952],564.3488821999636,None,564.3488821999636,None,564.3488821999636,None,567.633755399962,None,567.633755399962,None,,,,,,,,,,,,,,,,,,,,,pilot_4,001,2019_Nov_06_1712,test_final,3.1.5,60.036045650691584,
,,,,,,,,,,,,,,,,,,,,,,,,,,,,,,,,5,0,5,0,5,0,5,0,,,,,,,,,,,,,,,,,,,,,,,,,,,,,,,,,,,,,,,,,,,,,,,,,,,,,,,,,,,,,,,,,,,,,,,,,,,,,,,,,,,,,,,,,,,,,,,,,,,,,,,,,,,,,569.0111127999844,None,,,,,,,,,,,,,,,,,,,pilot_4,001,2019_Nov_06_1712,test_final,3.1.5,60.036045650691584,
,,,,,,,,,,,,,,,,,,,,,,,,,,,,,,,,5,0,5,0,,,,,,,,,,,,,,,,,,,,,,,,,,,,,,,,,,,,,,,,,,,,,,,,,,,,,,,,,,,,,,,,,,,,,,,,,,,,,,,,,,,,,,,,,,,,,,,,,,,,,,,,,,,,,,,,,,,hnrvz,"['h', 'n', 'r', 'v', 'z']",0,"[0.5957254999666475, 2.2975043999613263, 2.648386400018353, 3.5047696999972686, 6.976328899967484, 7.217994100006763, 12.348555999982636, 12.624145700014196, 12.84333719999995, 13.632894499984104, 14.119040599965956, 16.157253100012895]",570.2101223999634,None,570.2101223999634,None,0,HRNSVZ,570.2101223999634,None,,,,,,,pilot_4,001,2019_Nov_06_1712,test_final,3.1.5,60.036045650691584,
Practice,3,(7x2) - 5,9,,,,,,,,,,,,,,,,,,,,,,,,,,,,,6,0,6,0,0,0,0,0,0,0,0,2,,,,,,,,,,,,,,,,,,,,,,,,,,9,,,,,,,,,,,,,,,,,,,,,,,,,,,,,,,,,,,,,,1,,,,,,,,,,,,,,,,,,,,,,,,,,586.9768987999996,None,['9'],0,[2.521324999979697],586.9768987999996,None,586.9768987999996,None,586.9768987999996,None,589.6817864999757,None,589.6817864999757,None,,,,,,,,,,,,,,,,,,,,,pilot_4,001,2019_Nov_06_1712,test_final,3.1.5,60.036045650691584,
,,,,,,,,,,,,,,,,,,,,,,,,,,,,,,,,6,0,6,0,0,0,0,0,,,,,,,,,,,,,,,,,,,,,,,,,,,,,,,,,,,,,,,,,,,,,,,,,,,,,,,,,,,,,,,,,,,,,,,,,,,,,,,,,,,,,,,,,,,,,,,,,,,,,,,,,,,,,591.0395209999988,None,,,,,,,,,,,,,,,,,,,pilot_4,001,2019_Nov_06_1712,test_final,3.1.5,60.036045650691584,
Practice,14,(6/3) + 4 ,6,,,,,,,,,,,,,,,,,,,,,,,,,,,,,6,0,6,0,1,0,1,0,0,0,0,13,,,,,,,,,,,,,,,,,,,,,,,,,,6,,,,,,,,,,,,,,,,,,,,,,,,,,,,,,,,,,,,,,1,,,,,,,,,,,,,,,,,,,,,,,,,,592.3547595000127,None,['6'],0,[2.383964799984824],592.3547595000127,None,592.3547595000127,None,592.3547595000127,None,594.9447050999734,None,594.9447050999734,None,,,,,,,,,,,,,,,,,,,,,pilot_4,001,2019_Nov_06_1712,test_final,3.1.5,60.036045650691584,
,,,,,,,,,,,,,,,,,,,,,,,,,,,,,,,,6,0,6,0,1,0,1,0,,,,,,,,,,,,,,,,,,,,,,,,,,,,,,,,,,,,,,,,,,,,,,,,,,,,,,,,,,,,,,,,,,,,,,,,,,,,,,,,,,,,,,,,,,,,,,,,,,,,,,,,,,,,,596.300940199988,None,,,,,,,,,,,,,,,,,,,pilot_4,001,2019_Nov_06_1712,test_final,3.1.5,60.036045650691584,
Practice,1,(1x2) + 1,3,,,,,,,,,,,,,,,,,,,,,,,,,,,,,6,0,6,0,2,0,2,0,0,0,0,0,,,,,,,,,,,,,,,,,,,,,,,,,,3,,,,,,,,,,,,,,,,,,,,,,,,,,,,,,,,,,,,,,1,,,,,,,,,,,,,,,,,,,,,,,,,,597.6329953999957,None,['3'],0,[1.8519546000170521],597.6329953999957,None,597.6329953999957,None,597.6329953999957,None,599.6824742999743,None,599.6824742999743,None,,,,,,,,,,,,,,,,,,,,,pilot_4,001,2019_Nov_06_1712,test_final,3.1.5,60.036045650691584,
,,,,,,,,,,,,,,,,,,,,,,,,,,,,,,,,6,0,6,0,2,0,2,0,,,,,,,,,,,,,,,,,,,,,,,,,,,,,,,,,,,,,,,,,,,,,,,,,,,,,,,,,,,,,,,,,,,,,,,,,,,,,,,,,,,,,,,,,,,,,,,,,,,,,,,,,,,,,601.0462743999669,None,,,,,,,,,,,,,,,,,,,pilot_4,001,2019_Nov_06_1712,test_final,3.1.5,60.036045650691584,
Practice,8,(3/3) + 5,6,,,,,,,,,,,,,,,,,,,,,,,,,,,,,6,0,6,0,3,0,3,0,0,0,0,7,,,,,,,,,,,,,,,,,,,,,,,,,,6,,,,,,,,,,,,,,,,,,,,,,,,,,,,,,,,,,,,,,1,,,,,,,,,,,,,,,,,,,,,,,,,,602.3617120999843,None,['6'],0,[1.629891300050076],602.3617120999843,None,602.3617120999843,None,602.3617120999843,None,604.1865776999621,None,604.1865776999621,None,,,,,,,,,,,,,,,,,,,,,pilot_4,001,2019_Nov_06_1712,test_final,3.1.5,60.036045650691584,
,,,,,,,,,,,,,,,,,,,,,,,,,,,,,,,,6,0,6,0,3,0,3,0,,,,,,,,,,,,,,,,,,,,,,,,,,,,,,,,,,,,,,,,,,,,,,,,,,,,,,,,,,,,,,,,,,,,,,,,,,,,,,,,,,,,,,,,,,,,,,,,,,,,,,,,,,,,,605.5418849000125,None,,,,,,,,,,,,,,,,,,,pilot_4,001,2019_Nov_06_1712,test_final,3.1.5,60.036045650691584,
Practice,9,(4/2) + 5,7,,,,,,,,,,,,,,,,,,,,,,,,,,,,,6,0,6,0,4,0,4,0,0,0,0,8,,,,,,,,,,,,,,,,,,,,,,,,,,7,,,,,,,,,,,,,,,,,,,,,,,,,,,,,,,,,,,,,,1,,,,,,,,,,,,,,,,,,,,,,,,,,606.8739396000165,None,['7'],0,[2.3372632999671623],606.8739396000165,None,606.8739396000165,None,606.8739396000165,None,609.395157299994,None,609.395157299994,None,,,,,,,,,,,,,,,,,,,,,pilot_4,001,2019_Nov_06_1712,test_final,3.1.5,60.036045650691584,
,,,,,,,,,,,,,,,,,,,,,,,,,,,,,,,,6,0,6,0,4,0,4,0,,,,,,,,,,,,,,,,,,,,,,,,,,,,,,,,,,,,,,,,,,,,,,,,,,,,,,,,,,,,,,,,,,,,,,,,,,,,,,,,,,,,,,,,,,,,,,,,,,,,,,,,,,,,,610.753509800008,None,,,,,,,,,,,,,,,,,,,pilot_4,001,2019_Nov_06_1712,test_final,3.1.5,60.036045650691584,
Practice,11,(5x3) - 7,8,,,,,,,,,,,,,,,,,,,,,,,,,,,,,6,0,6,0,5,0,5,0,0,0,0,10,,,,,,,,,,,,,,,,,,,,,,,,,,8,,,,,,,,,,,,,,,,,,,,,,,,,,,,,,,,,,,,,,1,,,,,,,,,,,,,,,,,,,,,,,,,,612.0855622999952,None,['8'],0,[3.7449855000013486],612.0855622999952,None,612.0855622999952,None,612.0855622999952,None,616.0219580999692,None,616.0219580999692,None,,,,,,,,,,,,,,,,,,,,,pilot_4,001,2019_Nov_06_1712,test_final,3.1.5,60.036045650691584,
,,,,,,,,,,,,,,,,,,,,,,,,,,,,,,,,6,0,6,0,5,0,5,0,,,,,,,,,,,,,,,,,,,,,,,,,,,,,,,,,,,,,,,,,,,,,,,,,,,,,,,,,,,,,,,,,,,,,,,,,,,,,,,,,,,,,,,,,,,,,,,,,,,,,,,,,,,,,617.3636105000041,None,,,,,,,,,,,,,,,,,,,pilot_4,001,2019_Nov_06_1712,test_final,3.1.5,60.036045650691584,
,,,,,,,,,,,,,,,,,,,,,,,,,,,,,,,,6,0,6,0,,,,,,,,,,,,,,,,,,,,,,,,,,,,,,,,,,,,,,,,,,,,,,,,,,,,,,,,,,,,,,,,,,,,,,,,,,,,,,,,,,,,,,,,,,,,,,,,,,,,,,,,,,,,,,,,,,,rvqjxn,"['r', 'v', 'q', 'j', 'x', 'n']",0,"[1.310716499981936, 1.6611298999632709, 2.3767678999574855, 2.670442799979355, 3.3733399999910034, 3.7779010999947786, 4.868594100000337]",618.6124723000103,None,618.6124723000103,None,1,RVQJXN,618.6124723000103,None,,,,,,,pilot_4,001,2019_Nov_06_1712,test_final,3.1.5,60.036045650691584,
Practice,11,(5x3) - 7,8,,,,,,,,,,,,,,,,,,,,,,,,,,,,,7,0,7,0,0,0,0,0,0,0,0,10,,,,,,,,,,,,,,,,,,,,,,,,,,8,,,,,,,,,,,,,,,,,,,,,,,,,,,,,,,,,,,,,,1,,,,,,,,,,,,,,,,,,,,,,,,,,624.0904608999845,None,['8'],0,[1.2782636999618262],624.0904608999845,None,624.0904608999845,None,624.0904608999845,None,625.5666551999748,None,625.5666551999748,None,,,,,,,,,,,,,,,,,,,,,pilot_4,001,2019_Nov_06_1712,test_final,3.1.5,60.036045650691584,
,,,,,,,,,,,,,,,,,,,,,,,,,,,,,,,,7,0,7,0,0,0,0,0,,,,,,,,,,,,,,,,,,,,,,,,,,,,,,,,,,,,,,,,,,,,,,,,,,,,,,,,,,,,,,,,,,,,,,,,,,,,,,,,,,,,,,,,,,,,,,,,,,,,,,,,,,,,,626.9374668999808,None,,,,,,,,,,,,,,,,,,,pilot_4,001,2019_Nov_06_1712,test_final,3.1.5,60.036045650691584,
Practice,8,(3/3) + 5,6,,,,,,,,,,,,,,,,,,,,,,,,,,,,,7,0,7,0,1,0,1,0,0,0,0,7,,,,,,,,,,,,,,,,,,,,,,,,,,6,,,,,,,,,,,,,,,,,,,,,,,,,,,,,,,,,,,,,,1,,,,,,,,,,,,,,,,,,,,,,,,,,628.2696347999736,None,['6'],0,[1.440653400029987],628.2696347999736,None,628.2696347999736,None,628.2696347999736,None,629.906256199989,None,629.906256199989,None,,,,,,,,,,,,,,,,,,,,,pilot_4,001,2019_Nov_06_1712,test_final,3.1.5,60.036045650691584,
,,,,,,,,,,,,,,,,,,,,,,,,,,,,,,,,7,0,7,0,1,0,1,0,,,,,,,,,,,,,,,,,,,,,,,,,,,,,,,,,,,,,,,,,,,,,,,,,,,,,,,,,,,,,,,,,,,,,,,,,,,,,,,,,,,,,,,,,,,,,,,,,,,,,,,,,,,,,631.2665186999948,None,,,,,,,,,,,,,,,,,,,pilot_4,001,2019_Nov_06_1712,test_final,3.1.5,60.036045650691584,
Practice,12,(8/2) + 4,8,,,,,,,,,,,,,,,,,,,,,,,,,,,,,7,0,7,0,2,0,2,0,0,0,0,11,,,,,,,,,,,,,,,,,,,,,,,,,,8,,,,,,,,,,,,,,,,,,,,,,,,,,,,,,,,,,,,,,1,,,,,,,,,,,,,,,,,,,,,,,,,,632.603927899967,None,['8'],0,[1.7443775000283495],632.603927899967,None,632.603927899967,None,632.603927899967,None,634.5337123000063,None,634.5337123000063,None,,,,,,,,,,,,,,,,,,,,,pilot_4,001,2019_Nov_06_1712,test_final,3.1.5,60.036045650691584,
,,,,,,,,,,,,,,,,,,,,,,,,,,,,,,,,7,0,7,0,2,0,2,0,,,,,,,,,,,,,,,,,,,,,,,,,,,,,,,,,,,,,,,,,,,,,,,,,,,,,,,,,,,,,,,,,,,,,,,,,,,,,,,,,,,,,,,,,,,,,,,,,,,,,,,,,,,,,635.9118661999819,None,,,,,,,,,,,,,,,,,,,pilot_4,001,2019_Nov_06_1712,test_final,3.1.5,60.036045650691584,
Practice,8,(3/3) + 5,6,,,,,,,,,,,,,,,,,,,,,,,,,,,,,7,0,7,0,3,0,3,0,0,0,0,7,,,,,,,,,,,,,,,,,,,,,,,,,,6,,,,,,,,,,,,,,,,,,,,,,,,,,,,,,,,,,,,,,1,,,,,,,,,,,,,,,,,,,,,,,,,,637.2107992999954,None,['6'],0,[1.4303798000328243],637.2107992999954,None,637.2107992999954,None,637.2107992999954,None,638.8132153999759,None,638.8132153999759,None,,,,,,,,,,,,,,,,,,,,,pilot_4,001,2019_Nov_06_1712,test_final,3.1.5,60.036045650691584,
,,,,,,,,,,,,,,,,,,,,,,,,,,,,,,,,7,0,7,0,3,0,3,0,,,,,,,,,,,,,,,,,,,,,,,,,,,,,,,,,,,,,,,,,,,,,,,,,,,,,,,,,,,,,,,,,,,,,,,,,,,,,,,,,,,,,,,,,,,,,,,,,,,,,,,,,,,,,640.1911858000094,None,,,,,,,,,,,,,,,,,,,pilot_4,001,2019_Nov_06_1712,test_final,3.1.5,60.036045650691584,
Practice,15,(9/3) - 2,1,,,,,,,,,,,,,,,,,,,,,,,,,,,,,7,0,7,0,4,0,4,0,0,0,0,14,,,,,,,,,,,,,,,,,,,,,,,,,,1,,,,,,,,,,,,,,,,,,,,,,,,,,,,,,,,,,,,,,1,,,,,,,,,,,,,,,,,,,,,,,,,,641.5322263999842,None,['1'],0,[2.445090099994559],641.5322263999842,None,641.5322263999842,None,641.5322263999842,None,644.1915294000064,None,644.1915294000064,None,,,,,,,,,,,,,,,,,,,,,pilot_4,001,2019_Nov_06_1712,test_final,3.1.5,60.036045650691584,
,,,,,,,,,,,,,,,,,,,,,,,,,,,,,,,,7,0,7,0,4,0,4,0,,,,,,,,,,,,,,,,,,,,,,,,,,,,,,,,,,,,,,,,,,,,,,,,,,,,,,,,,,,,,,,,,,,,,,,,,,,,,,,,,,,,,,,,,,,,,,,,,,,,,,,,,,,,,645.5522663000156,None,,,,,,,,,,,,,,,,,,,pilot_4,001,2019_Nov_06_1712,test_final,3.1.5,60.036045650691584,
Practice,14,(6/3) + 4 ,6,,,,,,,,,,,,,,,,,,,,,,,,,,,,,7,0,7,0,5,0,5,0,0,0,0,13,,,,,,,,,,,,,,,,,,,,,,,,,,6,,,,,,,,,,,,,,,,,,,,,,,,,,,,,,,,,,,,,,1,,,,,,,,,,,,,,,,,,,,,,,,,,646.8681024999823,None,['6'],0,[3.520547299995087],646.8681024999823,None,646.8681024999823,None,646.8681024999823,None,650.5718606999726,None,650.5718606999726,None,,,,,,,,,,,,,,,,,,,,,pilot_4,001,2019_Nov_06_1712,test_final,3.1.5,60.036045650691584,
,,,,,,,,,,,,,,,,,,,,,,,,,,,,,,,,7,0,7,0,5,0,5,0,,,,,,,,,,,,,,,,,,,,,,,,,,,,,,,,,,,,,,,,,,,,,,,,,,,,,,,,,,,,,,,,,,,,,,,,,,,,,,,,,,,,,,,,,,,,,,,,,,,,,,,,,,,,,651.9631002999959,None,,,,,,,,,,,,,,,,,,,pilot_4,001,2019_Nov_06_1712,test_final,3.1.5,60.036045650691584,
Practice,14,(6/3) + 4 ,6,,,,,,,,,,,,,,,,,,,,,,,,,,,,,7,0,7,0,6,0,6,0,0,0,0,13,,,,,,,,,,,,,,,,,,,,,,,,,,6,,,,,,,,,,,,,,,,,,,,,,,,,,,,,,,,,,,,,,1,,,,,,,,,,,,,,,,,,,,,,,,,,653.2617932999856,None,['6'],0,[3.1364482000353746],653.2617932999856,None,653.2617932999856,None,653.2617932999856,None,656.5730900000199,None,656.5730900000199,None,,,,,,,,,,,,,,,,,,,,,pilot_4,001,2019_Nov_06_1712,test_final,3.1.5,60.036045650691584,
,,,,,,,,,,,,,,,,,,,,,,,,,,,,,,,,7,0,7,0,6,0,6,0,,,,,,,,,,,,,,,,,,,,,,,,,,,,,,,,,,,,,,,,,,,,,,,,,,,,,,,,,,,,,,,,,,,,,,,,,,,,,,,,,,,,,,,,,,,,,,,,,,,,,,,,,,,,,657.9404599000118,None,,,,,,,,,,,,,,,,,,,pilot_4,001,2019_Nov_06_1712,test_final,3.1.5,60.036045650691584,
,,,,,,,,,,,,,,,,,,,,,,,,,,,,,,,,7,0,7,0,,,,,,,,,,,,,,,,,,,,,,,,,,,,,,,,,,,,,,,,,,,,,,,,,,,,,,,,,,,,,,,,,,,,,,,,,,,,,,,,,,,,,,,,,,,,,,,,,,,,,,,,,,,,,,,,,,,rknlzvt,"['r', 'k', 'n', 'l', 'z', 'v', 't']",0,"[1.290374000032898, 1.5833416000241414, 1.8664916000561789, 2.064687700010836, 3.44996950001223, 4.001305100042373, 4.749890300037805, 6.484701600042172]",659.1892449000152,None,659.1892449000152,None,1,RKNLZVT,659.1892449000152,None,,,,,,,pilot_4,001,2019_Nov_06_1712,test_final,3.1.5,60.036045650691584,
Practice,10,(8/4) + 3,5,,,,,,,,,,,,,,,,,,,,,,,,,,,,,8,0,8,0,0,0,0,0,0,0,0,9,,,,,,,,,,,,,,,,,,,,,,,,,,5,,,,,,,,,,,,,,,,,,,,,,,,,,,,,,,,,,,,,,1,,,,,,,,,,,,,,,,,,,,,,,,,,666.2823177999817,None,['5'],0,[1.4080048999749124],666.2823177999817,None,666.2823177999817,None,666.2823177999817,None,667.9494965000194,None,667.9494965000194,None,,,,,,,,,,,,,,,,,,,,,pilot_4,001,2019_Nov_06_1712,test_final,3.1.5,60.036045650691584,
,,,,,,,,,,,,,,,,,,,,,,,,,,,,,,,,8,0,8,0,0,0,0,0,,,,,,,,,,,,,,,,,,,,,,,,,,,,,,,,,,,,,,,,,,,,,,,,,,,,,,,,,,,,,,,,,,,,,,,,,,,,,,,,,,,,,,,,,,,,,,,,,,,,,,,,,,,,,669.312518599967,None,,,,,,,,,,,,,,,,,,,pilot_4,001,2019_Nov_06_1712,test_final,3.1.5,60.036045650691584,
Practice,15,(9/3) - 2,1,,,,,,,,,,,,,,,,,,,,,,,,,,,,,8,0,8,0,1,0,1,0,0,0,0,14,,,,,,,,,,,,,,,,,,,,,,,,,,1,,,,,,,,,,,,,,,,,,,,,,,,,,,,,,,,,,,,,,1,,,,,,,,,,,,,,,,,,,,,,,,,,670.6281173999887,None,['1'],0,[1.673403499997221],670.6281173999887,None,670.6281173999887,None,670.6281173999887,None,672.5027834000066,None,672.5027834000066,None,,,,,,,,,,,,,,,,,,,,,pilot_4,001,2019_Nov_06_1712,test_final,3.1.5,60.036045650691584,
,,,,,,,,,,,,,,,,,,,,,,,,,,,,,,,,8,0,8,0,1,0,1,0,,,,,,,,,,,,,,,,,,,,,,,,,,,,,,,,,,,,,,,,,,,,,,,,,,,,,,,,,,,,,,,,,,,,,,,,,,,,,,,,,,,,,,,,,,,,,,,,,,,,,,,,,,,,,673.8583481999813,None,,,,,,,,,,,,,,,,,,,pilot_4,001,2019_Nov_06_1712,test_final,3.1.5,60.036045650691584,
Practice,3,(7x2) - 5,9,,,,,,,,,,,,,,,,,,,,,,,,,,,,,8,0,8,0,2,0,2,0,0,0,0,2,,,,,,,,,,,,,,,,,,,,,,,,,,9,,,,,,,,,,,,,,,,,,,,,,,,,,,,,,,,,,,,,,1,,,,,,,,,,,,,,,,,,,,,,,,,,675.1906628999859,None,['9'],0,[2.171261499985121],675.1906628999859,None,675.1906628999859,None,675.1906628999859,None,677.586859699979,None,677.586859699979,None,,,,,,,,,,,,,,,,,,,,,pilot_4,001,2019_Nov_06_1712,test_final,3.1.5,60.036045650691584,
,,,,,,,,,,,,,,,,,,,,,,,,,,,,,,,,8,0,8,0,2,0,2,0,,,,,,,,,,,,,,,,,,,,,,,,,,,,,,,,,,,,,,,,,,,,,,,,,,,,,,,,,,,,,,,,,,,,,,,,,,,,,,,,,,,,,,,,,,,,,,,,,,,,,,,,,,,,,678.9364785999642,None,,,,,,,,,,,,,,,,,,,pilot_4,001,2019_Nov_06_1712,test_final,3.1.5,60.036045650691584,
Practice,7,(4x6) - 17,7,,,,,,,,,,,,,,,,,,,,,,,,,,,,,8,0,8,0,3,0,3,0,0,0,0,6,,,,,,,,,,,,,,,,,,,,,,,,,,7,,,,,,,,,,,,,,,,,,,,,,,,,,,,,,,,,,,,,,1,,,,,,,,,,,,,,,,,,,,,,,,,,680.2850472999853,None,['7'],0,[2.255795999953989],680.2850472999853,None,680.2850472999853,None,680.2850472999853,None,682.7281974999933,None,682.7281974999933,None,,,,,,,,,,,,,,,,,,,,,pilot_4,001,2019_Nov_06_1712,test_final,3.1.5,60.036045650691584,
,,,,,,,,,,,,,,,,,,,,,,,,,,,,,,,,8,0,8,0,3,0,3,0,,,,,,,,,,,,,,,,,,,,,,,,,,,,,,,,,,,,,,,,,,,,,,,,,,,,,,,,,,,,,,,,,,,,,,,,,,,,,,,,,,,,,,,,,,,,,,,,,,,,,,,,,,,,,684.0816609999747,None,,,,,,,,,,,,,,,,,,,pilot_4,001,2019_Nov_06_1712,test_final,3.1.5,60.036045650691584,
Practice,15,(9/3) - 2,1,,,,,,,,,,,,,,,,,,,,,,,,,,,,,8,0,8,0,4,0,4,0,0,0,0,14,,,,,,,,,,,,,,,,,,,,,,,,,,1,,,,,,,,,,,,,,,,,,,,,,,,,,,,,,,,,,,,,,1,,,,,,,,,,,,,,,,,,,,,,,,,,685.413683599967,None,['1'],0,[1.629063899978064],685.413683599967,None,685.413683599967,None,685.413683599967,None,687.2175738000078,None,687.2175738000078,None,,,,,,,,,,,,,,,,,,,,,pilot_4,001,2019_Nov_06_1712,test_final,3.1.5,60.036045650691584,
,,,,,,,,,,,,,,,,,,,,,,,,,,,,,,,,8,0,8,0,4,0,4,0,,,,,,,,,,,,,,,,,,,,,,,,,,,,,,,,,,,,,,,,,,,,,,,,,,,,,,,,,,,,,,,,,,,,,,,,,,,,,,,,,,,,,,,,,,,,,,,,,,,,,,,,,,,,,688.5770527999848,None,,,,,,,,,,,,,,,,,,,pilot_4,001,2019_Nov_06_1712,test_final,3.1.5,60.036045650691584,
Practice,4,(4x4) - 14,2,,,,,,,,,,,,,,,,,,,,,,,,,,,,,8,0,8,0,5,0,5,0,0,0,0,3,,,,,,,,,,,,,,,,,,,,,,,,,,2,,,,,,,,,,,,,,,,,,,,,,,,,,,,,,,,,,,,,,1,,,,,,,,,,,,,,,,,,,,,,,,,,689.9090245999978,None,['2'],0,[1.4392640000442043],689.9090245999978,None,689.9090245999978,None,689.9090245999978,None,691.5348796999897,None,691.5348796999897,None,,,,,,,,,,,,,,,,,,,,,pilot_4,001,2019_Nov_06_1712,test_final,3.1.5,60.036045650691584,
,,,,,,,,,,,,,,,,,,,,,,,,,,,,,,,,8,0,8,0,5,0,5,0,,,,,,,,,,,,,,,,,,,,,,,,,,,,,,,,,,,,,,,,,,,,,,,,,,,,,,,,,,,,,,,,,,,,,,,,,,,,,,,,,,,,,,,,,,,,,,,,,,,,,,,,,,,,,692.8894408000051,None,,,,,,,,,,,,,,,,,,,pilot_4,001,2019_Nov_06_1712,test_final,3.1.5,60.036045650691584,
Practice,6,(2x6) - 8,4,,,,,,,,,,,,,,,,,,,,,,,,,,,,,8,0,8,0,6,0,6,0,0,0,0,5,,,,,,,,,,,,,,,,,,,,,,,,,,4,,,,,,,,,,,,,,,,,,,,,,,,,,,,,,,,,,,,,,1,,,,,,,,,,,,,,,,,,,,,,,,,,694.2214492000057,None,['4'],0,[4.847646199981682],694.2214492000057,None,694.2214492000057,None,694.2214492000057,None,699.3026970999781,None,699.3026970999781,None,,,,,,,,,,,,,,,,,,,,,pilot_4,001,2019_Nov_06_1712,test_final,3.1.5,60.036045650691584,
,,,,,,,,,,,,,,,,,,,,,,,,,,,,,,,,8,0,8,0,6,0,6,0,,,,,,,,,,,,,,,,,,,,,,,,,,,,,,,,,,,,,,,,,,,,,,,,,,,,,,,,,,,,,,,,,,,,,,,,,,,,,,,,,,,,,,,,,,,,,,,,,,,,,,,,,,,,,700.665426099964,None,,,,,,,,,,,,,,,,,,,pilot_4,001,2019_Nov_06_1712,test_final,3.1.5,60.036045650691584,
Practice,10,(8/4) + 3,5,,,,,,,,,,,,,,,,,,,,,,,,,,,,,8,0,8,0,7,0,7,0,0,0,0,9,,,,,,,,,,,,,,,,,,,,,,,,,,5,,,,,,,,,,,,,,,,,,,,,,,,,,,,,,,,,,,,,,1,,,,,,,,,,,,,,,,,,,,,,,,,,701.9972564000054,None,['5'],0,[3.869148599973414],701.9972564000054,None,701.9972564000054,None,701.9972564000054,None,706.044706799963,None,706.044706799963,None,,,,,,,,,,,,,,,,,,,,,pilot_4,001,2019_Nov_06_1712,test_final,3.1.5,60.036045650691584,
,,,,,,,,,,,,,,,,,,,,,,,,,,,,,,,,8,0,8,0,7,0,7,0,,,,,,,,,,,,,,,,,,,,,,,,,,,,,,,,,,,,,,,,,,,,,,,,,,,,,,,,,,,,,,,,,,,,,,,,,,,,,,,,,,,,,,,,,,,,,,,,,,,,,,,,,,,,,707.4418672000174,None,,,,,,,,,,,,,,,,,,,pilot_4,001,2019_Nov_06_1712,test_final,3.1.5,60.036045650691584,
,,,,,,,,,,,,,,,,,,,,,,,,,,,,,,,,8,0,8,0,,,,,,,,,,,,,,,,,,,,,,,,,,,,,,,,,,,,,,,,,,,,,,,,,,,,,,,,,,,,,,,,,,,,,,,,,,,,,,,,,,,,,,,,,,,,,,,,,,,,,,,,,,,,,,,,,,,qjhknlvx,"['q', 'j', 'h', 'k', 'n', 'l', 'v', 'x']",0,"[-33.763777300016955, 0.9771101000369526, 1.5032698000431992, 1.7236773000331596, 4.5073862000135705, 4.7579028000473045, 4.9657407000195235, 5.240660400013439, 6.059734600014053, 6.339880800049286, 8.395487900008447]",708.6573845999665,None,708.6573845999665,None,1,QJHKNLVX,708.6573845999665,None,,,,,,,pilot_4,001,2019_Nov_06_1712,test_final,3.1.5,60.036045650691584,
Practice,4,(4x4) - 14,2,,,,,,,,,,,,,,,,,,,,,,,,,,,,,9,0,9,0,0,0,0,0,0,0,0,3,,,,,,,,,,,,,,,,,,,,,,,,,,2,,,,,,,,,,,,,,,,,,,,,,,,,,,,,,,,,,,,,,1,,,,,,,,,,,,,,,,,,,,,,,,,,717.6819014999783,None,['2'],0,[1.3568080000113696],717.6819014999783,None,717.6819014999783,None,717.6819014999783,None,719.2664800999919,None,719.2664800999919,None,,,,,,,,,,,,,,,,,,,,,pilot_4,001,2019_Nov_06_1712,test_final,3.1.5,60.036045650691584,
,,,,,,,,,,,,,,,,,,,,,,,,,,,,,,,,9,0,9,0,0,0,0,0,,,,,,,,,,,,,,,,,,,,,,,,,,,,,,,,,,,,,,,,,,,,,,,,,,,,,,,,,,,,,,,,,,,,,,,,,,,,,,,,,,,,,,,,,,,,,,,,,,,,,,,,,,,,,720.6123652000097,None,,,,,,,,,,,,,,,,,,,pilot_4,001,2019_Nov_06_1712,test_final,3.1.5,60.036045650691584,
Practice,15,(9/3) - 2,1,,,,,,,,,,,,,,,,,,,,,,,,,,,,,9,0,9,0,1,0,1,0,0,0,0,14,,,,,,,,,,,,,,,,,,,,,,,,,,1,,,,,,,,,,,,,,,,,,,,,,,,,,,,,,,,,,,,,,1,,,,,,,,,,,,,,,,,,,,,,,,,,721.94443709997,None,['1'],0,[1.7145273999776691],721.94443709997,None,721.94443709997,None,721.94443709997,None,723.8414316999842,None,723.8414316999842,None,,,,,,,,,,,,,,,,,,,,,pilot_4,001,2019_Nov_06_1712,test_final,3.1.5,60.036045650691584,
,,,,,,,,,,,,,,,,,,,,,,,,,,,,,,,,9,0,9,0,1,0,1,0,,,,,,,,,,,,,,,,,,,,,,,,,,,,,,,,,,,,,,,,,,,,,,,,,,,,,,,,,,,,,,,,,,,,,,,,,,,,,,,,,,,,,,,,,,,,,,,,,,,,,,,,,,,,,725.2077924999758,None,,,,,,,,,,,,,,,,,,,pilot_4,001,2019_Nov_06_1712,test_final,3.1.5,60.036045650691584,
Practice,2,(1/1) - 1,0,,,,,,,,,,,,,,,,,,,,,,,,,,,,,9,0,9,0,2,0,2,0,0,0,0,1,,,,,,,,,,,,,,,,,,,,,,,,,,0,,,,,,,,,,,,,,,,,,,,,,,,,,,,,,,,,,,,,,1,,,,,,,,,,,,,,,,,,,,,,,,,,726.5234348999802,None,['0'],0,[1.6247749999747612],726.5234348999802,None,726.5234348999802,None,726.5234348999802,None,728.340994499973,None,728.340994499973,None,,,,,,,,,,,,,,,,,,,,,pilot_4,001,2019_Nov_06_1712,test_final,3.1.5,60.036045650691584,
,,,,,,,,,,,,,,,,,,,,,,,,,,,,,,,,9,0,9,0,2,0,2,0,,,,,,,,,,,,,,,,,,,,,,,,,,,,,,,,,,,,,,,,,,,,,,,,,,,,,,,,,,,,,,,,,,,,,,,,,,,,,,,,,,,,,,,,,,,,,,,,,,,,,,,,,,,,,729.6866692000185,None,,,,,,,,,,,,,,,,,,,pilot_4,001,2019_Nov_06_1712,test_final,3.1.5,60.036045650691584,
Practice,13,(3x8) - 19 ,5,,,,,,,,,,,,,,,,,,,,,,,,,,,,,9,0,9,0,3,0,3,0,0,0,0,12,,,,,,,,,,,,,,,,,,,,,,,,,,6,,,,,,,,,,,,,,,,,,,,,,,,,,,,,,,,,,,,,,0,,,,,,,,,,,,,,,,,,,,,,,,,,731.0188454000163,None,['6'],0,[3.5005110999918543],731.0188454000163,None,731.0188454000163,None,731.0188454000163,None,734.7460180000053,None,734.7460180000053,None,,,,,,,,,,,,,,,,,,,,,pilot_4,001,2019_Nov_06_1712,test_final,3.1.5,60.036045650691584,
Practice,6,(2x6) - 8,4,,,,,,,,,,,,,,,,,,,,,,,,,,,,,9,0,9,0,3,0,3,0,0,1,1,5,,,,,,,,,,,,,,,,,,,,,,,,,,4,,,,,,,,,,,,,,,,,,,,,,,,,,,,,,,,,,,,,,1,,,,,,,,,,,,,,,,,,,,,,,,,,736.1196417000028,None,['4'],0,[2.4128495999611914],736.1196417000028,None,736.1196417000028,None,736.1196417000028,None,738.671849699982,None,738.671849699982,None,,,,,,,,,,,,,,,,,,,,,pilot_4,001,2019_Nov_06_1712,test_final,3.1.5,60.036045650691584,
,,,,,,,,,,,,,,,,,,,,,,,,,,,,,,,,9,0,9,0,3,0,3,0,,,,,,,,,,,,,,,,,,,,,,,,,,,,,,,,,,,,,,,,,,,,,,,,,,,,,,,,,,,,,,,,,,,,,,,,,,,,,,,,,,,,,,,,,,,,,,,,,,,,,,,,,,,,,739.9929078000132,None,,,,,,,,,,,,,,,,,,,pilot_4,001,2019_Nov_06_1712,test_final,3.1.5,60.036045650691584,
Practice,8,(3/3) + 5,6,,,,,,,,,,,,,,,,,,,,,,,,,,,,,9,0,9,0,4,0,4,0,0,0,0,7,,,,,,,,,,,,,,,,,,,,,,,,,,6,,,,,,,,,,,,,,,,,,,,,,,,,,,,,,,,,,,,,,1,,,,,,,,,,,,,,,,,,,,,,,,,,741.3584302999661,None,['6'],0,[4.490673299995251],741.3584302999661,None,741.3584302999661,None,741.3584302999661,None,746.0256972999778,None,746.0256972999778,None,,,,,,,,,,,,,,,,,,,,,pilot_4,001,2019_Nov_06_1712,test_final,3.1.5,60.036045650691584,
,,,,,,,,,,,,,,,,,,,,,,,,,,,,,,,,9,0,9,0,4,0,4,0,,,,,,,,,,,,,,,,,,,,,,,,,,,,,,,,,,,,,,,,,,,,,,,,,,,,,,,,,,,,,,,,,,,,,,,,,,,,,,,,,,,,,,,,,,,,,,,,,,,,,,,,,,,,,747.385967499984,None,,,,,,,,,,,,,,,,,,,pilot_4,001,2019_Nov_06_1712,test_final,3.1.5,60.036045650691584,
Practice,1,(1x2) + 1,3,,,,,,,,,,,,,,,,,,,,,,,,,,,,,9,0,9,0,5,0,5,0,0,0,0,0,,,,,,,,,,,,,,,,,,,,,,,,,,3,,,,,,,,,,,,,,,,,,,,,,,,,,,,,,,,,,,,,,1,,,,,,,,,,,,,,,,,,,,,,,,,,748.7238895000191,None,['3'],0,[6.935381099989172],748.7238895000191,None,748.7238895000191,None,748.7238895000191,None,755.8445479999646,None,755.8445479999646,None,,,,,,,,,,,,,,,,,,,,,pilot_4,001,2019_Nov_06_1712,test_final,3.1.5,60.036045650691584,
,,,,,,,,,,,,,,,,,,,,,,,,,,,,,,,,9,0,9,0,5,0,5,0,,,,,,,,,,,,,,,,,,,,,,,,,,,,,,,,,,,,,,,,,,,,,,,,,,,,,,,,,,,,,,,,,,,,,,,,,,,,,,,,,,,,,,,,,,,,,,,,,,,,,,,,,,,,,757.2098213999998,None,,,,,,,,,,,,,,,,,,,pilot_4,001,2019_Nov_06_1712,test_final,3.1.5,60.036045650691584,
Practice,10,(8/4) + 3,5,,,,,,,,,,,,,,,,,,,,,,,,,,,,,9,0,9,0,6,0,6,0,0,0,0,9,,,,,,,,,,,,,,,,,,,,,,,,,,5,,,,,,,,,,,,,,,,,,,,,,,,,,,,,,,,,,,,,,1,,,,,,,,,,,,,,,,,,,,,,,,,,758.5252694999799,None,['5'],0,[3.2334910000208765],758.5252694999799,None,758.5252694999799,None,758.5252694999799,None,761.9650093999808,None,761.9650093999808,None,,,,,,,,,,,,,,,,,,,,,pilot_4,001,2019_Nov_06_1712,test_final,3.1.5,60.036045650691584,
,,,,,,,,,,,,,,,,,,,,,,,,,,,,,,,,9,0,9,0,6,0,6,0,,,,,,,,,,,,,,,,,,,,,,,,,,,,,,,,,,,,,,,,,,,,,,,,,,,,,,,,,,,,,,,,,,,,,,,,,,,,,,,,,,,,,,,,,,,,,,,,,,,,,,,,,,,,,763.3204393999767,None,,,,,,,,,,,,,,,,,,,pilot_4,001,2019_Nov_06_1712,test_final,3.1.5,60.036045650691584,
Practice,3,(7x2) - 5,9,,,,,,,,,,,,,,,,,,,,,,,,,,,,,9,0,9,0,7,0,7,0,0,0,0,2,,,,,,,,,,,,,,,,,,,,,,,,,,9,,,,,,,,,,,,,,,,,,,,,,,,,,,,,,,,,,,,,,1,,,,,,,,,,,,,,,,,,,,,,,,,,764.635769799992,None,['9'],0,[9.072908100031782],764.635769799992,None,764.635769799992,None,764.635769799992,None,773.8851113999845,None,773.8851113999845,None,,,,,,,,,,,,,,,,,,,,,pilot_4,001,2019_Nov_06_1712,test_final,3.1.5,60.036045650691584,
,,,,,,,,,,,,,,,,,,,,,,,,,,,,,,,,9,0,9,0,7,0,7,0,,,,,,,,,,,,,,,,,,,,,,,,,,,,,,,,,,,,,,,,,,,,,,,,,,,,,,,,,,,,,,,,,,,,,,,,,,,,,,,,,,,,,,,,,,,,,,,,,,,,,,,,,,,,,775.2420813000062,None,,,,,,,,,,,,,,,,,,,pilot_4,001,2019_Nov_06_1712,test_final,3.1.5,60.036045650691584,
Practice,15,(9/3) - 2,1,,,,,,,,,,,,,,,,,,,,,,,,,,,,,9,0,9,0,8,0,8,0,0,0,0,14,,,,,,,,,,,,,,,,,,,,,,,,,,1,,,,,,,,,,,,,,,,,,,,,,,,,,,,,,,,,,,,,,1,,,,,,,,,,,,,,,,,,,,,,,,,,776.574070099974,None,['1'],0,[7.85804730001837],776.574070099974,None,776.574070099974,None,776.574070099974,None,784.6162261000136,None,784.6162261000136,None,,,,,,,,,,,,,,,,,,,,,pilot_4,001,2019_Nov_06_1712,test_final,3.1.5,60.036045650691584,
,,,,,,,,,,,,,,,,,,,,,,,,,,,,,,,,9,0,9,0,8,0,8,0,,,,,,,,,,,,,,,,,,,,,,,,,,,,,,,,,,,,,,,,,,,,,,,,,,,,,,,,,,,,,,,,,,,,,,,,,,,,,,,,,,,,,,,,,,,,,,,,,,,,,,,,,,,,,786.0149990000064,None,,,,,,,,,,,,,,,,,,,pilot_4,001,2019_Nov_06_1712,test_final,3.1.5,60.036045650691584,
,,,,,,,,,,,,,,,,,,,,,,,,,,,,,,,,9,0,9,0,,,,,,,,,,,,,,,,,,,,,,,,,,,,,,,,,,,,,,,,,,,,,,,,,,,,,,,,,,,,,,,,,,,,,,,,,,,,,,,,,,,,,,,,,,,,,,,,,,,,,,,,,,,,,,,,,,,qnkztvr,"['q', 'n', 'k', 'z', 't', 'v', 'r']",0,"[0.8527913000434637, 1.2675064000068232, 4.760595600004308, 5.949679400015157, 6.28969440003857, 6.909693600027822, 7.596726800024044, 8.445178400026634]",787.2303048999747,None,787.2303048999747,None,0,QNKHZTVRS,787.2303048999747,None,,,,,,,pilot_4,001,2019_Nov_06_1712,test_final,3.1.5,60.036045650691584,
Practice,13,(3x8) - 19 ,5,,,,,,,,,,,,,,,,,,,,,,,,,,,,,10,0,10,0,0,0,0,0,0,0,0,12,,,,,,,,,,,,,,,,,,,,,,,,,,6,,,,,,,,,,,,,,,,,,,,,,,,,,,,,,,,,,,,,,0,,,,,,,,,,,,,,,,,,,,,,,,,,796.2880045999773,None,['6'],0,[2.25799630000256],796.2880045999773,None,796.2880045999773,None,796.2880045999773,None,798.7312672999687,None,798.7312672999687,None,,,,,,,,,,,,,,,,,,,,,pilot_4,001,2019_Nov_06_1712,test_final,3.1.5,60.036045650691584,
Practice,3,(7x2) - 5,9,,,,,,,,,,,,,,,,,,,,,,,,,,,,,10,0,10,0,0,0,0,0,0,1,1,2,,,,,,,,,,,,,,,,,,,,,,,,,,9,,,,,,,,,,,,,,,,,,,,,,,,,,,,,,,,,,,,,,1,,,,,,,,,,,,,,,,,,,,,,,,,,800.1011576000019,None,['9'],0,[2.670323300000746],800.1011576000019,None,800.1011576000019,None,800.1011576000019,None,802.9098055000068,None,802.9098055000068,None,,,,,,,,,,,,,,,,,,,,,pilot_4,001,2019_Nov_06_1712,test_final,3.1.5,60.036045650691584,
,,,,,,,,,,,,,,,,,,,,,,,,,,,,,,,,10,0,10,0,0,0,0,0,,,,,,,,,,,,,,,,,,,,,,,,,,,,,,,,,,,,,,,,,,,,,,,,,,,,,,,,,,,,,,,,,,,,,,,,,,,,,,,,,,,,,,,,,,,,,,,,,,,,,,,,,,,,,804.2302170000039,None,,,,,,,,,,,,,,,,,,,pilot_4,001,2019_Nov_06_1712,test_final,3.1.5,60.036045650691584,
Practice,15,(9/3) - 2,1,,,,,,,,,,,,,,,,,,,,,,,,,,,,,10,0,10,0,1,0,1,0,0,0,0,14,,,,,,,,,,,,,,,,,,,,,,,,,,1,,,,,,,,,,,,,,,,,,,,,,,,,,,,,,,,,,,,,,1,,,,,,,,,,,,,,,,,,,,,,,,,,805.595568299992,None,['1'],0,[1.1605937000131235],805.595568299992,None,805.595568299992,None,805.595568299992,None,806.9479208000121,None,806.9479208000121,None,,,,,,,,,,,,,,,,,,,,,pilot_4,001,2019_Nov_06_1712,test_final,3.1.5,60.036045650691584,
,,,,,,,,,,,,,,,,,,,,,,,,,,,,,,,,10,0,10,0,1,0,1,0,,,,,,,,,,,,,,,,,,,,,,,,,,,,,,,,,,,,,,,,,,,,,,,,,,,,,,,,,,,,,,,,,,,,,,,,,,,,,,,,,,,,,,,,,,,,,,,,,,,,,,,,,,,,,808.3097175000003,None,,,,,,,,,,,,,,,,,,,pilot_4,001,2019_Nov_06_1712,test_final,3.1.5,60.036045650691584,
Practice,7,(4x6) - 17,7,,,,,,,,,,,,,,,,,,,,,,,,,,,,,10,0,10,0,2,0,2,0,0,0,0,6,,,,,,,,,,,,,,,,,,,,,,,,,,7,,,,,,,,,,,,,,,,,,,,,,,,,,,,,,,,,,,,,,1,,,,,,,,,,,,,,,,,,,,,,,,,,809.6418940000003,None,['7'],0,[1.7731394000002183],809.6418940000003,None,809.6418940000003,None,809.6418940000003,None,811.5999846999766,None,811.5999846999766,None,,,,,,,,,,,,,,,,,,,,,pilot_4,001,2019_Nov_06_1712,test_final,3.1.5,60.036045650691584,
,,,,,,,,,,,,,,,,,,,,,,,,,,,,,,,,10,0,10,0,2,0,2,0,,,,,,,,,,,,,,,,,,,,,,,,,,,,,,,,,,,,,,,,,,,,,,,,,,,,,,,,,,,,,,,,,,,,,,,,,,,,,,,,,,,,,,,,,,,,,,,,,,,,,,,,,,,,,812.988371399988,None,,,,,,,,,,,,,,,,,,,pilot_4,001,2019_Nov_06_1712,test_final,3.1.5,60.036045650691584,
Practice,10,(8/4) + 3,5,,,,,,,,,,,,,,,,,,,,,,,,,,,,,10,0,10,0,3,0,3,0,0,0,0,9,,,,,,,,,,,,,,,,,,,,,,,,,,5,,,,,,,,,,,,,,,,,,,,,,,,,,,,,,,,,,,,,,1,,,,,,,,,,,,,,,,,,,,,,,,,,814.2704097999958,None,['5'],0,[2.437422599992715],814.2704097999958,None,814.2704097999958,None,814.2704097999958,None,816.9207936999737,None,816.9207936999737,None,,,,,,,,,,,,,,,,,,,,,pilot_4,001,2019_Nov_06_1712,test_final,3.1.5,60.036045650691584,
,,,,,,,,,,,,,,,,,,,,,,,,,,,,,,,,10,0,10,0,3,0,3,0,,,,,,,,,,,,,,,,,,,,,,,,,,,,,,,,,,,,,,,,,,,,,,,,,,,,,,,,,,,,,,,,,,,,,,,,,,,,,,,,,,,,,,,,,,,,,,,,,,,,,,,,,,,,,818.2830001999973,None,,,,,,,,,,,,,,,,,,,pilot_4,001,2019_Nov_06_1712,test_final,3.1.5,60.036045650691584,
Practice,7,(4x6) - 17,7,,,,,,,,,,,,,,,,,,,,,,,,,,,,,10,0,10,0,4,0,4,0,0,0,0,6,,,,,,,,,,,,,,,,,,,,,,,,,,7,,,,,,,,,,,,,,,,,,,,,,,,,,,,,,,,,,,,,,1,,,,,,,,,,,,,,,,,,,,,,,,,,819.5986307999701,None,['7'],0,[6.047135200002231],819.5986307999701,None,819.5986307999701,None,819.5986307999701,None,825.8403759999783,None,825.8403759999783,None,,,,,,,,,,,,,,,,,,,,,pilot_4,001,2019_Nov_06_1712,test_final,3.1.5,60.036045650691584,
,,,,,,,,,,,,,,,,,,,,,,,,,,,,,,,,10,0,10,0,4,0,4,0,,,,,,,,,,,,,,,,,,,,,,,,,,,,,,,,,,,,,,,,,,,,,,,,,,,,,,,,,,,,,,,,,,,,,,,,,,,,,,,,,,,,,,,,,,,,,,,,,,,,,,,,,,,,,827.2410820999648,None,,,,,,,,,,,,,,,,,,,pilot_4,001,2019_Nov_06_1712,test_final,3.1.5,60.036045650691584,
Practice,12,(8/2) + 4,8,,,,,,,,,,,,,,,,,,,,,,,,,,,,,10,0,10,0,5,0,5,0,0,0,0,11,,,,,,,,,,,,,,,,,,,,,,,,,,8,,,,,,,,,,,,,,,,,,,,,,,,,,,,,,,,,,,,,,1,,,,,,,,,,,,,,,,,,,,,,,,,,828.5231015000027,None,['8'],0,[17.353687800001353],828.5231015000027,None,828.5231015000027,None,828.5231015000027,None,846.0685153999948,None,846.0685153999948,None,,,,,,,,,,,,,,,,,,,,,pilot_4,001,2019_Nov_06_1712,test_final,3.1.5,60.036045650691584,
,,,,,,,,,,,,,,,,,,,,,,,,,,,,,,,,10,0,10,0,5,0,5,0,,,,,,,,,,,,,,,,,,,,,,,,,,,,,,,,,,,,,,,,,,,,,,,,,,,,,,,,,,,,,,,,,,,,,,,,,,,,,,,,,,,,,,,,,,,,,,,,,,,,,,,,,,,,,847.437968800019,None,,,,,,,,,,,,,,,,,,,pilot_4,001,2019_Nov_06_1712,test_final,3.1.5,60.036045650691584,
Practice,11,(5x3) - 7,8,,,,,,,,,,,,,,,,,,,,,,,,,,,,,10,0,10,0,6,0,6,0,0,0,0,10,,,,,,,,,,,,,,,,,,,,,,,,,,8,,,,,,,,,,,,,,,,,,,,,,,,,,,,,,,,,,,,,,1,,,,,,,,,,,,,,,,,,,,,,,,,,848.753442599962,None,['8'],0,[10.138241399952676],848.753442599962,None,848.753442599962,None,848.753442599962,None,859.0763424999896,None,859.0763424999896,None,,,,,,,,,,,,,,,,,,,,,pilot_4,001,2019_Nov_06_1712,test_final,3.1.5,60.036045650691584,
,,,,,,,,,,,,,,,,,,,,,,,,,,,,,,,,10,0,10,0,6,0,6,0,,,,,,,,,,,,,,,,,,,,,,,,,,,,,,,,,,,,,,,,,,,,,,,,,,,,,,,,,,,,,,,,,,,,,,,,,,,,,,,,,,,,,,,,,,,,,,,,,,,,,,,,,,,,,860.4417940999847,None,,,,,,,,,,,,,,,,,,,pilot_4,001,2019_Nov_06_1712,test_final,3.1.5,60.036045650691584,
Practice,12,(8/2) + 4,8,,,,,,,,,,,,,,,,,,,,,,,,,,,,,10,0,10,0,7,0,7,0,0,0,0,11,,,,,,,,,,,,,,,,,,,,,,,,,,8,,,,,,,,,,,,,,,,,,,,,,,,,,,,,,,,,,,,,,1,,,,,,,,,,,,,,,,,,,,,,,,,,861.7572415000177,None,['8'],0,[4.212321500002872],861.7572415000177,None,861.7572415000177,None,861.7572415000177,None,866.1436480999691,None,866.1436480999691,None,,,,,,,,,,,,,,,,,,,,,pilot_4,001,2019_Nov_06_1712,test_final,3.1.5,60.036045650691584,
,,,,,,,,,,,,,,,,,,,,,,,,,,,,,,,,10,0,10,0,7,0,7,0,,,,,,,,,,,,,,,,,,,,,,,,,,,,,,,,,,,,,,,,,,,,,,,,,,,,,,,,,,,,,,,,,,,,,,,,,,,,,,,,,,,,,,,,,,,,,,,,,,,,,,,,,,,,,867.5018443000154,None,,,,,,,,,,,,,,,,,,,pilot_4,001,2019_Nov_06_1712,test_final,3.1.5,60.036045650691584,
Practice,3,(7x2) - 5,9,,,,,,,,,,,,,,,,,,,,,,,,,,,,,10,0,10,0,8,0,8,0,0,0,0,2,,,,,,,,,,,,,,,,,,,,,,,,,,9,,,,,,,,,,,,,,,,,,,,,,,,,,,,,,,,,,,,,,1,,,,,,,,,,,,,,,,,,,,,,,,,,868.8337399999727,None,['9'],0,[3.0766716999933124],868.8337399999727,None,868.8337399999727,None,868.8337399999727,None,872.1103853000095,None,872.1103853000095,None,,,,,,,,,,,,,,,,,,,,,pilot_4,001,2019_Nov_06_1712,test_final,3.1.5,60.036045650691584,
,,,,,,,,,,,,,,,,,,,,,,,,,,,,,,,,10,0,10,0,8,0,8,0,,,,,,,,,,,,,,,,,,,,,,,,,,,,,,,,,,,,,,,,,,,,,,,,,,,,,,,,,,,,,,,,,,,,,,,,,,,,,,,,,,,,,,,,,,,,,,,,,,,,,,,,,,,,,873.4626612999709,None,,,,,,,,,,,,,,,,,,,pilot_4,001,2019_Nov_06_1712,test_final,3.1.5,60.036045650691584,
,,,,,,,,,,,,,,,,,,,,,,,,,,,,,,,,10,0,10,0,,,,,,,,,,,,,,,,,,,,,,,,,,,,,,,,,,,,,,,,,,,,,,,,,,,,,,,,,,,,,,,,,,,,,,,,,,,,,,,,,,,,,,,,,,,,,,,,,,,,,,,,,,,,,,,,,,,lzxnrvk,"['l', 'z', 'x', 'n', 'r', 'v', 'k']",0,"[-33.81716299999971, 0.8645808000001125, 1.4167720000259578, 2.0195840999949723, 2.83744089998072, 3.189195499988273, 3.642721900017932, 4.1812093000044115, 4.34572099999059, 4.972753099980764, 6.029028200020548, 7.165186099999119]",874.6945165999932,None,874.6945165999932,None,0,LZSNXRVJK,874.6945165999932,None,,,,,,,pilot_4,001,2019_Nov_06_1712,test_final,3.1.5,60.036045650691584,
,,,,,,,,,,,,,,,,,,,,,,,,,,,,,,,,,,,,,,,,,,,,,,,,,,,,,,,,,,,,,,,,,,,,,,,,,,,,,,,,,,,,,,,,,,,,,,,,,,,,,,,,,,,,,,,,,,,,,,,,,,,,,,,,,,,,,,,,,,,,,,,,,,,,,,,,,,,,,,,,,,882.4372558000032,None,space,36.353858699963894,882.4372558000032,None,pilot_4,001,2019_Nov_06_1712,test_final,3.1.5,60.036045650691584,
