Task,Trial,Problem,Operation_answer,next_level.thisRepN,next_level.thisTrialN,next_level.thisN,next_level.thisIndex,next_letter.thisRepN,next_letter.thisTrialN,next_letter.thisN,next_letter.thisIndex,repeat_practice.thisRepN,repeat_practice.thisTrialN,repeat_practice.thisN,repeat_practice.thisIndex,trials.thisRepN,trials.thisTrialN,trials.thisN,trials.thisIndex,span_recall_prac.thisRepN,span_recall_prac.thisTrialN,span_recall_prac.thisN,span_recall_prac.thisIndex,span_size_prac.thisRepN,span_size_prac.thisTrialN,span_size_prac.thisN,span_size_prac.thisIndex,repeat_if_wrong_prac.thisRepN,repeat_if_wrong_prac.thisTrialN,repeat_if_wrong_prac.thisN,repeat_if_wrong_prac.thisIndex,span_recall.thisRepN,span_recall.thisTrialN,span_recall.thisN,span_recall.thisIndex,span_size.thisRepN,span_size.thisTrialN,span_size.thisN,span_size.thisIndex,repeat_if_wrong.thisRepN,repeat_if_wrong.thisTrialN,repeat_if_wrong.thisN,repeat_if_wrong.thisIndex,instructions_2.started,instructions_2.stopped,key_resp_4.keys,key_resp_4.rt,key_resp_4.started,key_resp_4.stopped,text_2.started,text_2.stopped,simple_recall,key_resp_5.keys,key_resp_5.rt,key_resp_5.started,key_resp_5.stopped,text_feedback.started,text_feedback.stopped,simple_recall_corr,simple_recall_corrkeys,instructions_3.started,instructions_3.stopped,instructions.started,instructions.stopped,key_resp_2.keys,key_resp_2.rt,key_resp_2.started,key_resp_2.stopped,digit_answer,operation.started,operation.stopped,key_resp.keys,key_resp.corr,key_resp.rt,key_resp.started,key_resp.stopped,operation_feedback.started,operation_feedback.stopped,RT_list,instructions_8.started,instructions_8.stopped,feedback_msg.started,feedback_msg.stopped,processing_score,sumRT,meanRT,sumdiff,sd,RT,feedback_msg_2.started,feedback_msg_2.stopped,key_resp_3.keys,key_resp_3.rt,key_resp_3.started,key_resp_3.stopped,instructions_4.started,instructions_4.stopped,key_resp_6.keys,key_resp_6.rt,key_resp_6.started,key_resp_6.stopped,operation_3.started,operation_3.stopped,key_resp_11.keys,key_resp_11.corr,key_resp_11.rt,key_resp_11.started,key_resp_11.stopped,operation_feedback_2.started,operation_feedback_2.stopped,instructions_9.started,instructions_9.stopped,operation_correct,feedback_msg_4.started,feedback_msg_4.stopped,operation_4.started,operation_4.stopped,text_3.started,text_3.stopped,complex_recall_prac,key_resp_9.keys,key_resp_9.corr,key_resp_9.rt,key_resp_9.started,key_resp_9.stopped,text_feedback_3.started,text_feedback_3.stopped,instructions_6.started,instructions_6.stopped,complex_prac_corr,feedback_msg_3.started,feedback_msg_3.stopped,instructions_7.started,instructions_7.stopped,key_resp_10.keys,key_resp_10.rt,key_resp_10.started,key_resp_10.stopped,operation_2.started,operation_2.stopped,key_resp_7.keys,key_resp_7.corr,key_resp_7.rt,key_resp_7.started,key_resp_7.stopped,operation_feedback_3.started,operation_feedback_3.stopped,instructions_10.started,instructions_10.stopped,feedback_msg_5.started,feedback_msg_5.stopped,operation_5.started,operation_5.stopped,text.started,text.stopped,complex_recall,key_resp_8.keys,key_resp_8.corr,key_resp_8.rt,key_resp_8.started,key_resp_8.stopped,text_feedback_2.started,text_feedback_2.stopped,complex_recall_corr,complex_recall_corrkeys,instructions_5.started,instructions_5.stopped,finish.started,finish.stopped,key_resp_12.keys,key_resp_12.rt,key_resp_12.started,key_resp_12.stopped,participant,session,date,expName,psychopyVersion,frameRate
,,,,,,,,,,,,,,,,,,,,,,,,,,,,,,,,,,,,,,,,,,,,16.1726633,None,space,30.1794651,16.1726633,None,,,,,,,,,,,,,,,,,,,,,,,,,,,,,,,,,,,,,,,,,,,,,,,,,,,,,,,,,,,,,,,,,,,,,,,,,,,,,,,,,,,,,,,,,,,,,,,,,,,,,,,,,,,,,,,,,,,,,,,,,,,,,S1,1,2019_Nov_12_1124,test_final,3.1.5,60.01925418
,,,,0,0,0,0,0,0,0,0,,,,,,,,,,,,,,,,,,,,,,,,,,,,,,,,,,,,,,,46.9187763,None,,,,,,,,,,,,,,,,,,,,,,,,,,,,,,,,,,,,,,,,,,,,,,,,,,,,,,,,,,,,,,,,,,,,,,,,,,,,,,,,,,,,,,,,,,,,,,,,,,,,,,,,,,,,,,,,,,,,,,,,,,,S1,1,2019_Nov_12_1124,test_final,3.1.5,60.01925418
,,,,0,0,0,0,1,0,1,0,,,,,,,,,,,,,,,,,,,,,,,,,,,,,,,,,,,,,,,48.2009027,None,,,,,,,,,,,,,,,,,,,,,,,,,,,,,,,,,,,,,,,,,,,,,,,,,,,,,,,,,,,,,,,,,,,,,,,,,,,,,,,,,,,,,,,,,,,,,,,,,,,,,,,,,,,,,,,,,,,,,,,,,,,S1,1,2019_Nov_12_1124,test_final,3.1.5,60.01925418
,,,,1,0,1,0,0,0,0,0,,,,,,,,,,,,,,,,,,,,,,,,,,,,,,,,,,,,,,,53.5957525,None,xl,"['x', 'l']","[1.6942451000213623, 2.59895580005832, 3.526360600022599]",49.4996564,None,49.4996564,None,1,XL,49.4996564,None,,,,,,,,,,,,,,,,,,,,,,,,,,,,,,,,,,,,,,,,,,,,,,,,,,,,,,,,,,,,,,,,,,,,,,,,,,,,,,,,,,,,,,,,,,,,,,,,,,,,,,,,,,,,,,,,S1,1,2019_Nov_12_1124,test_final,3.1.5,60.01925418
,,,,1,0,1,0,1,0,1,0,,,,,,,,,,,,,,,,,,,,,,,,,,,,,,,,,,,,,,,54.8943212,54.3829281,,,,,,,,,,,,,,,,,,,,,,,,,,,,,,,,,,,,,,,,,,,,,,,,,,,,,,,,,,,,,,,,,,,,,,,,,,,,,,,,,,,,,,,,,,,,,,,,,,,,,,,,,,,,,,,,,,,,,,,,,,,S1,1,2019_Nov_12_1124,test_final,3.1.5,60.01925418
,,,,2,0,2,0,0,0,0,0,,,,,,,,,,,,,,,,,,,,,,,,,,,,,,,,,,,,,,,58.69053,None,kn,"['k', 'n']","[1.1798792000627145, 1.4710143000120297, 1.9453218000708148]",56.1931436,None,56.1931436,None,1,KN,56.1931436,None,,,,,,,,,,,,,,,,,,,,,,,,,,,,,,,,,,,,,,,,,,,,,,,,,,,,,,,,,,,,,,,,,,,,,,,,,,,,,,,,,,,,,,,,,,,,,,,,,,,,,,,,,,,,,,,,S1,1,2019_Nov_12_1124,test_final,3.1.5,60.01925418
,,,,2,0,2,0,1,0,1,0,,,,,,,,,,,,,,,,,,,,,,,,,,,,,,,,,,,,,,,59.9893597,59.4788267,,,,,,,,,,,,,,,,,,,,,,,,,,,,,,,,,,,,,,,,,,,,,,,,,,,,,,,,,,,,,,,,,,,,,,,,,,,,,,,,,,,,,,,,,,,,,,,,,,,,,,,,,,,,,,,,,,,,,,,,,,,S1,1,2019_Nov_12_1124,test_final,3.1.5,60.01925418
,,,,2,0,2,0,2,0,2,0,,,,,,,,,,,,,,,,,,,,,,,,,,,,,,,,,,,,,,,61.288083,60.7715985,,,,,,,,,,,,,,,,,,,,,,,,,,,,,,,,,,,,,,,,,,,,,,,,,,,,,,,,,,,,,,,,,,,,,,,,,,,,,,,,,,,,,,,,,,,,,,,,,,,,,,,,,,,,,,,,,,,,,,,,,,,S1,1,2019_Nov_12_1124,test_final,3.1.5,60.01925418
,,,,3,0,3,0,0,0,0,0,,,,,,,,,,,,,,,,,,,,,,,,,,,,,,,,,,,,,,,65.8166646,None,hvz,"['h', 'v', 'z']","[1.4024623000295833, 1.7932620000792667, 2.227876399992965, 2.6772605000296608]",62.587076,None,62.587076,None,1,HVZ,62.587076,None,,,,,,,,,,,,,,,,,,,,,,,,,,,,,,,,,,,,,,,,,,,,,,,,,,,,,,,,,,,,,,,,,,,,,,,,,,,,,,,,,,,,,,,,,,,,,,,,,,,,,,,,,,,,,,,,S1,1,2019_Nov_12_1124,test_final,3.1.5,60.01925418
,,,,3,0,3,0,1,0,1,0,,,,,,,,,,,,,,,,,,,,,,,,,,,,,,,,,,,,,,,67.1324601,None,,,,,,,,,,,,,,,,,,,,,,,,,,,,,,,,,,,,,,,,,,,,,,,,,,,,,,,,,,,,,,,,,,,,,,,,,,,,,,,,,,,,,,,,,,,,,,,,,,,,,,,,,,,,,,,,,,,,,,,,,,,S1,1,2019_Nov_12_1124,test_final,3.1.5,60.01925418
,,,,3,0,3,0,2,0,2,0,,,,,,,,,,,,,,,,,,,,,,,,,,,,,,,,,,,,,,,68.4310612,None,,,,,,,,,,,,,,,,,,,,,,,,,,,,,,,,,,,,,,,,,,,,,,,,,,,,,,,,,,,,,,,,,,,,,,,,,,,,,,,,,,,,,,,,,,,,,,,,,,,,,,,,,,,,,,,,,,,,,,,,,,,S1,1,2019_Nov_12_1124,test_final,3.1.5,60.01925418
,,,,4,0,4,0,0,0,0,0,,,,,,,,,,,,,,,,,,,,,,,,,,,,,,,,,,,,,,,72.2939186,None,rhj,"['r', 'h', 'j']","[1.08386769995559, 1.3167908999603242, 1.574934999924153, 2.0125262999208644]",69.7300962,None,69.7300962,None,1,RHJ,69.7300962,None,,,,,,,,,,,,,,,,,,,,,,,,,,,,,,,,,,,,,,,,,,,,,,,,,,,,,,,,,,,,,,,,,,,,,,,,,,,,,,,,,,,,,,,,,,,,,,,,,,,,,,,,,,,,,,,,S1,1,2019_Nov_12_1124,test_final,3.1.5,60.01925418
,,,,4,0,4,0,1,0,1,0,,,,,,,,,,,,,,,,,,,,,,,,,,,,,,,,,,,,,,,73.6094534,None,,,,,,,,,,,,,,,,,,,,,,,,,,,,,,,,,,,,,,,,,,,,,,,,,,,,,,,,,,,,,,,,,,,,,,,,,,,,,,,,,,,,,,,,,,,,,,,,,,,,,,,,,,,,,,,,,,,,,,,,,,,S1,1,2019_Nov_12_1124,test_final,3.1.5,60.01925418
,,,,4,0,4,0,2,0,2,0,,,,,,,,,,,,,,,,,,,,,,,,,,,,,,,,,,,,,,,74.9080272,None,,,,,,,,,,,,,,,,,,,,,,,,,,,,,,,,,,,,,,,,,,,,,,,,,,,,,,,,,,,,,,,,,,,,,,,,,,,,,,,,,,,,,,,,,,,,,,,,,,,,,,,,,,,,,,,,,,,,,,,,,,,S1,1,2019_Nov_12_1124,test_final,3.1.5,60.01925418
,,,,4,0,4,0,3,0,3,0,,,,,,,,,,,,,,,,,,,,,,,,,,,,,,,,,,,,,,,76.2067155,None,,,,,,,,,,,,,,,,,,,,,,,,,,,,,,,,,,,,,,,,,,,,,,,,,,,,,,,,,,,,,,,,,,,,,,,,,,,,,,,,,,,,,,,,,,,,,,,,,,,,,,,,,,,,,,,,,,,,,,,,,,,S1,1,2019_Nov_12_1124,test_final,3.1.5,60.01925418
,,,,5,0,5,0,0,0,0,0,,,,,,,,,,,,,,,,,,,,,,,,,,,,,,,,,,,,,,,80.4523651,None,vlns,"['v', 'l', 'n', 's']","[0.934493999928236, 1.2334247999824584, 1.6177591999294236, 2.015409499988891, 2.3878797999350354]",77.5056529,None,77.5056529,None,1,VLNS,77.5056529,None,,,,,,,,,,,,,,,,,,,,,,,,,,,,,,,,,,,,,,,,,,,,,,,,,,,,,,,,,,,,,,,,,,,,,,,,,,,,,,,,,,,,,,,,,,,,,,,,,,,,,,,,,,,,,,,,S1,1,2019_Nov_12_1124,test_final,3.1.5,60.01925418
,,,,5,0,5,0,1,0,1,0,,,,,,,,,,,,,,,,,,,,,,,,,,,,,,,,,,,,,,,81.7680065,None,,,,,,,,,,,,,,,,,,,,,,,,,,,,,,,,,,,,,,,,,,,,,,,,,,,,,,,,,,,,,,,,,,,,,,,,,,,,,,,,,,,,,,,,,,,,,,,,,,,,,,,,,,,,,,,,,,,,,,,,,,,S1,1,2019_Nov_12_1124,test_final,3.1.5,60.01925418
,,,,5,0,5,0,2,0,2,0,,,,,,,,,,,,,,,,,,,,,,,,,,,,,,,,,,,,,,,83.0667897,None,,,,,,,,,,,,,,,,,,,,,,,,,,,,,,,,,,,,,,,,,,,,,,,,,,,,,,,,,,,,,,,,,,,,,,,,,,,,,,,,,,,,,,,,,,,,,,,,,,,,,,,,,,,,,,,,,,,,,,,,,,,S1,1,2019_Nov_12_1124,test_final,3.1.5,60.01925418
,,,,5,0,5,0,3,0,3,0,,,,,,,,,,,,,,,,,,,,,,,,,,,,,,,,,,,,,,,84.3653164,None,,,,,,,,,,,,,,,,,,,,,,,,,,,,,,,,,,,,,,,,,,,,,,,,,,,,,,,,,,,,,,,,,,,,,,,,,,,,,,,,,,,,,,,,,,,,,,,,,,,,,,,,,,,,,,,,,,,,,,,,,,,S1,1,2019_Nov_12_1124,test_final,3.1.5,60.01925418
,,,,6,0,6,0,0,0,0,0,,,,,,,,,,,,,,,,,,,,,,,,,,,,,,,,,,,,,,,88.6446469,None,rtqs,"['r', 't', 'q', 's']","[0.9357119000051171, 1.265075600007549, 1.6043729999801144, 2.06778249994386, 2.417995599913411]",85.6642414,None,85.6642414,None,1,RTQS,85.6642414,None,,,,,,,,,,,,,,,,,,,,,,,,,,,,,,,,,,,,,,,,,,,,,,,,,,,,,,,,,,,,,,,,,,,,,,,,,,,,,,,,,,,,,,,,,,,,,,,,,,,,,,,,,,,,,,,,S1,1,2019_Nov_12_1124,test_final,3.1.5,60.01925418
,,,,6,0,6,0,1,0,1,0,,,,,,,,,,,,,,,,,,,,,,,,,,,,,,,,,,,,,,,89.9599077,None,,,,,,,,,,,,,,,,,,,,,,,,,,,,,,,,,,,,,,,,,,,,,,,,,,,,,,,,,,,,,,,,,,,,,,,,,,,,,,,,,,,,,,,,,,,,,,,,,,,,,,,,,,,,,,,,,,,,,,,,,,,S1,1,2019_Nov_12_1124,test_final,3.1.5,60.01925418
,,,,6,0,6,0,2,0,2,0,,,,,,,,,,,,,,,,,,,,,,,,,,,,,,,,,,,,,,,91.2586476,None,,,,,,,,,,,,,,,,,,,,,,,,,,,,,,,,,,,,,,,,,,,,,,,,,,,,,,,,,,,,,,,,,,,,,,,,,,,,,,,,,,,,,,,,,,,,,,,,,,,,,,,,,,,,,,,,,,,,,,,,,,,S1,1,2019_Nov_12_1124,test_final,3.1.5,60.01925418
,,,,6,0,6,0,3,0,3,0,,,,,,,,,,,,,,,,,,,,,,,,,,,,,,,,,,,,,,,92.5575342,None,,,,,,,,,,,,,,,,,,,,,,,,,,,,,,,,,,,,,,,,,,,,,,,,,,,,,,,,,,,,,,,,,,,,,,,,,,,,,,,,,,,,,,,,,,,,,,,,,,,,,,,,,,,,,,,,,,,,,,,,,,,S1,1,2019_Nov_12_1124,test_final,3.1.5,60.01925418
,,,,6,0,6,0,4,0,4,0,,,,,,,,,,,,,,,,,,,,,,,,,,,,,,,,,,,,,,,93.8562884,None,,,,,,,,,,,,,,,,,,,,,,,,,,,,,,,,,,,,,,,,,,,,,,,,,,,,,,,,,,,,,,,,,,,,,,,,,,,,,,,,,,,,,,,,,,,,,,,,,,,,,,,,,,,,,,,,,,,,,,,,,,,S1,1,2019_Nov_12_1124,test_final,3.1.5,60.01925418
,,,,7,0,7,0,0,0,0,0,,,,,,,,,,,,,,,,,,,,,,,,,,,,,,,,,,,,,,,98.6680898,None,vkxsn,"['v', 'k', 'x', 's', 'n']","[0.9516760000260547, 1.2740654000081122, 1.6633317000232637, 2.0139009000267833, 2.357401499990374, 2.882162200054154]",95.1550031,None,95.1550031,None,1,VKXSN,95.1550031,None,,,,,,,,,,,,,,,,,,,,,,,,,,,,,,,,,,,,,,,,,,,,,,,,,,,,,,,,,,,,,,,,,,,,,,,,,,,,,,,,,,,,,,,,,,,,,,,,,,,,,,,,,,,,,,,,S1,1,2019_Nov_12_1124,test_final,3.1.5,60.01925418
,,,,7,0,7,0,1,0,1,0,,,,,,,,,,,,,,,,,,,,,,,,,,,,,,,,,,,,,,,99.9667573,None,,,,,,,,,,,,,,,,,,,,,,,,,,,,,,,,,,,,,,,,,,,,,,,,,,,,,,,,,,,,,,,,,,,,,,,,,,,,,,,,,,,,,,,,,,,,,,,,,,,,,,,,,,,,,,,,,,,,,,,,,,,S1,1,2019_Nov_12_1124,test_final,3.1.5,60.01925418
,,,,7,0,7,0,2,0,2,0,,,,,,,,,,,,,,,,,,,,,,,,,,,,,,,,,,,,,,,101.2655308,None,,,,,,,,,,,,,,,,,,,,,,,,,,,,,,,,,,,,,,,,,,,,,,,,,,,,,,,,,,,,,,,,,,,,,,,,,,,,,,,,,,,,,,,,,,,,,,,,,,,,,,,,,,,,,,,,,,,,,,,,,,,S1,1,2019_Nov_12_1124,test_final,3.1.5,60.01925418
,,,,7,0,7,0,3,0,3,0,,,,,,,,,,,,,,,,,,,,,,,,,,,,,,,,,,,,,,,102.5639528,102.0478538,,,,,,,,,,,,,,,,,,,,,,,,,,,,,,,,,,,,,,,,,,,,,,,,,,,,,,,,,,,,,,,,,,,,,,,,,,,,,,,,,,,,,,,,,,,,,,,,,,,,,,,,,,,,,,,,,,,,,,,,,,,S1,1,2019_Nov_12_1124,test_final,3.1.5,60.01925418
,,,,7,0,7,0,4,0,4,0,,,,,,,,,,,,,,,,,,,,,,,,,,,,,,,,,,,,,,,103.8630696,103.3466493,,,,,,,,,,,,,,,,,,,,,,,,,,,,,,,,,,,,,,,,,,,,,,,,,,,,,,,,,,,,,,,,,,,,,,,,,,,,,,,,,,,,,,,,,,,,,,,,,,,,,,,,,,,,,,,,,,,,,,,,,,,S1,1,2019_Nov_12_1124,test_final,3.1.5,60.01925418
,,,,8,0,8,0,0,0,0,0,,,,,,,,,,,,,,,,,,,,,,,,,,,,,,,,,,,,,,,111.2390765,None,hvkxq,"['h', 'v', 'k', 'x', 'q']","[1.0800802999874577, 1.4218532999511808, 4.7177691999822855, 4.930301799904555, 5.205078999977559, 5.520640500006266]",105.1620016,None,105.1620016,None,1,HVKXQ,105.1620016,None,,,,,,,,,,,,,,,,,,,,,,,,,,,,,,,,,,,,,,,,,,,,,,,,,,,,,,,,,,,,,,,,,,,,,,,,,,,,,,,,,,,,,,,,,,,,,,,,,,,,,,,,,,,,,,,,S1,1,2019_Nov_12_1124,test_final,3.1.5,60.01925418
,,,,8,0,8,0,1,0,1,0,,,,,,,,,,,,,,,,,,,,,,,,,,,,,,,,,,,,,,,112.5379562,112.032217,,,,,,,,,,,,,,,,,,,,,,,,,,,,,,,,,,,,,,,,,,,,,,,,,,,,,,,,,,,,,,,,,,,,,,,,,,,,,,,,,,,,,,,,,,,,,,,,,,,,,,,,,,,,,,,,,,,,,,,,,,,S1,1,2019_Nov_12_1124,test_final,3.1.5,60.01925418
,,,,8,0,8,0,2,0,2,0,,,,,,,,,,,,,,,,,,,,,,,,,,,,,,,,,,,,,,,113.8365512,113.3200576,,,,,,,,,,,,,,,,,,,,,,,,,,,,,,,,,,,,,,,,,,,,,,,,,,,,,,,,,,,,,,,,,,,,,,,,,,,,,,,,,,,,,,,,,,,,,,,,,,,,,,,,,,,,,,,,,,,,,,,,,,,S1,1,2019_Nov_12_1124,test_final,3.1.5,60.01925418
,,,,8,0,8,0,3,0,3,0,,,,,,,,,,,,,,,,,,,,,,,,,,,,,,,,,,,,,,,115.1354114,114.6189757,,,,,,,,,,,,,,,,,,,,,,,,,,,,,,,,,,,,,,,,,,,,,,,,,,,,,,,,,,,,,,,,,,,,,,,,,,,,,,,,,,,,,,,,,,,,,,,,,,,,,,,,,,,,,,,,,,,,,,,,,,,S1,1,2019_Nov_12_1124,test_final,3.1.5,60.01925418
,,,,8,0,8,0,4,0,4,0,,,,,,,,,,,,,,,,,,,,,,,,,,,,,,,,,,,,,,,116.4341822,115.9183528,,,,,,,,,,,,,,,,,,,,,,,,,,,,,,,,,,,,,,,,,,,,,,,,,,,,,,,,,,,,,,,,,,,,,,,,,,,,,,,,,,,,,,,,,,,,,,,,,,,,,,,,,,,,,,,,,,,,,,,,,,,S1,1,2019_Nov_12_1124,test_final,3.1.5,60.01925418
,,,,8,0,8,0,5,0,5,0,,,,,,,,,,,,,,,,,,,,,,,,,,,,,,,,,,,,,,,117.732795,117.2186486,,,,,,,,,,,,,,,,,,,,,,,,,,,,,,,,,,,,,,,,,,,,,,,,,,,,,,,,,,,,,,,,,,,,,,,,,,,,,,,,,,,,,,,,,,,,,,,,,,,,,,,,,,,,,,,,,,,,,,,,,,,S1,1,2019_Nov_12_1124,test_final,3.1.5,60.01925418
,,,,9,0,9,0,0,0,0,0,,,,,,,,,,,,,,,,,,,,,,,,,,,,,,,,,,,,,,,126.1740767,None,nlvhqt,"['n', 'l', 'v', 'h', 'q', 't']","[1.1704932999564335, 2.424394299974665, 4.744976000045426, 5.536708700004965, 5.858289600000717, 5.997881600051187, 6.576722500030883]",119.0316291,None,119.0316291,None,1,NLVHQT,119.0316291,None,,,,,,,,,,,,,,,,,,,,,,,,,,,,,,,,,,,,,,,,,,,,,,,,,,,,,,,,,,,,,,,,,,,,,,,,,,,,,,,,,,,,,,,,,,,,,,,,,,,,,,,,,,,,,,,,S1,1,2019_Nov_12_1124,test_final,3.1.5,60.01925418
,,,,9,0,9,0,1,0,1,0,,,,,,,,,,,,,,,,,,,,,,,,,,,,,,,,,,,,,,,127.4731459,126.95671,,,,,,,,,,,,,,,,,,,,,,,,,,,,,,,,,,,,,,,,,,,,,,,,,,,,,,,,,,,,,,,,,,,,,,,,,,,,,,,,,,,,,,,,,,,,,,,,,,,,,,,,,,,,,,,,,,,,,,,,,,,S1,1,2019_Nov_12_1124,test_final,3.1.5,60.01925418
,,,,9,0,9,0,2,0,2,0,,,,,,,,,,,,,,,,,,,,,,,,,,,,,,,,,,,,,,,128.7718398,128.2553798,,,,,,,,,,,,,,,,,,,,,,,,,,,,,,,,,,,,,,,,,,,,,,,,,,,,,,,,,,,,,,,,,,,,,,,,,,,,,,,,,,,,,,,,,,,,,,,,,,,,,,,,,,,,,,,,,,,,,,,,,,,S1,1,2019_Nov_12_1124,test_final,3.1.5,60.01925418
,,,,9,0,9,0,3,0,3,0,,,,,,,,,,,,,,,,,,,,,,,,,,,,,,,,,,,,,,,130.0706244,129.5541268,,,,,,,,,,,,,,,,,,,,,,,,,,,,,,,,,,,,,,,,,,,,,,,,,,,,,,,,,,,,,,,,,,,,,,,,,,,,,,,,,,,,,,,,,,,,,,,,,,,,,,,,,,,,,,,,,,,,,,,,,,,S1,1,2019_Nov_12_1124,test_final,3.1.5,60.01925418
,,,,9,0,9,0,4,0,4,0,,,,,,,,,,,,,,,,,,,,,,,,,,,,,,,,,,,,,,,131.3693892,130.8528386,,,,,,,,,,,,,,,,,,,,,,,,,,,,,,,,,,,,,,,,,,,,,,,,,,,,,,,,,,,,,,,,,,,,,,,,,,,,,,,,,,,,,,,,,,,,,,,,,,,,,,,,,,,,,,,,,,,,,,,,,,,S1,1,2019_Nov_12_1124,test_final,3.1.5,60.01925418
,,,,9,0,9,0,5,0,5,0,,,,,,,,,,,,,,,,,,,,,,,,,,,,,,,,,,,,,,,132.6680542,132.1516387,,,,,,,,,,,,,,,,,,,,,,,,,,,,,,,,,,,,,,,,,,,,,,,,,,,,,,,,,,,,,,,,,,,,,,,,,,,,,,,,,,,,,,,,,,,,,,,,,,,,,,,,,,,,,,,,,,,,,,,,,,,S1,1,2019_Nov_12_1124,test_final,3.1.5,60.01925418
,,,,10,0,10,0,0,0,0,0,,,,,,,,,,,,,,,,,,,,,,,,,,,,,,,,,,,,,,,137.9130525,None,zsnlth,"['z', 's', 'n', 'l', 't', 'h']","[1.1955025000497699, 1.5016818000003695, 1.8904218000825495, 2.1515286000212654, 2.5908893999876454, 2.7867244000080973, 3.3887739999918267]",133.9669387,None,133.9669387,None,1,ZSNLTH,133.9669387,None,,,,,,,,,,,,,,,,,,,,,,,,,,,,,,,,,,,,,,,,,,,,,,,,,,,,,,,,,,,,,,,,,,,,,,,,,,,,,,,,,,,,,,,,,,,,,,,,,,,,,,,,,,,,,,,,S1,1,2019_Nov_12_1124,test_final,3.1.5,60.01925418
,,,,10,0,10,0,1,0,1,0,,,,,,,,,,,,,,,,,,,,,,,,,,,,,,,,,,,,,,,139.2279811,None,,,,,,,,,,,,,,,,,,,,,,,,,,,,,,,,,,,,,,,,,,,,,,,,,,,,,,,,,,,,,,,,,,,,,,,,,,,,,,,,,,,,,,,,,,,,,,,,,,,,,,,,,,,,,,,,,,,,,,,,,,,S1,1,2019_Nov_12_1124,test_final,3.1.5,60.01925418
,,,,10,0,10,0,2,0,2,0,,,,,,,,,,,,,,,,,,,,,,,,,,,,,,,,,,,,,,,140.5272098,None,,,,,,,,,,,,,,,,,,,,,,,,,,,,,,,,,,,,,,,,,,,,,,,,,,,,,,,,,,,,,,,,,,,,,,,,,,,,,,,,,,,,,,,,,,,,,,,,,,,,,,,,,,,,,,,,,,,,,,,,,,,S1,1,2019_Nov_12_1124,test_final,3.1.5,60.01925418
,,,,10,0,10,0,3,0,3,0,,,,,,,,,,,,,,,,,,,,,,,,,,,,,,,,,,,,,,,141.8259157,None,,,,,,,,,,,,,,,,,,,,,,,,,,,,,,,,,,,,,,,,,,,,,,,,,,,,,,,,,,,,,,,,,,,,,,,,,,,,,,,,,,,,,,,,,,,,,,,,,,,,,,,,,,,,,,,,,,,,,,,,,,,S1,1,2019_Nov_12_1124,test_final,3.1.5,60.01925418
,,,,10,0,10,0,4,0,4,0,,,,,,,,,,,,,,,,,,,,,,,,,,,,,,,,,,,,,,,143.1248039,None,,,,,,,,,,,,,,,,,,,,,,,,,,,,,,,,,,,,,,,,,,,,,,,,,,,,,,,,,,,,,,,,,,,,,,,,,,,,,,,,,,,,,,,,,,,,,,,,,,,,,,,,,,,,,,,,,,,,,,,,,,,S1,1,2019_Nov_12_1124,test_final,3.1.5,60.01925418
,,,,10,0,10,0,5,0,5,0,,,,,,,,,,,,,,,,,,,,,,,,,,,,,,,,,,,,,,,144.4234777,None,,,,,,,,,,,,,,,,,,,,,,,,,,,,,,,,,,,,,,,,,,,,,,,,,,,,,,,,,,,,,,,,,,,,,,,,,,,,,,,,,,,,,,,,,,,,,,,,,,,,,,,,,,,,,,,,,,,,,,,,,,,S1,1,2019_Nov_12_1124,test_final,3.1.5,60.01925418
,,,,10,0,10,0,6,0,6,0,,,,,,,,,,,,,,,,,,,,,,,,,,,,,,,,,,,,,,,145.721683,None,,,,,,,,,,,,,,,,,,,,,,,,,,,,,,,,,,,,,,,,,,,,,,,,,,,,,,,,,,,,,,,,,,,,,,,,,,,,,,,,,,,,,,,,,,,,,,,,,,,,,,,,,,,,,,,,,,,,,,,,,,,S1,1,2019_Nov_12_1124,test_final,3.1.5,60.01925418
,,,,11,0,11,0,0,0,0,0,,,,,,,,,,,,,,,,,,,,,,,,,,,,,,,,,,,,,,,153.2647287,None,lhxqjz,"['l', 'h', 'x', 'q', 'j', 'z']","[0.8605097000254318, 1.4494243999943137, 2.924651699955575, 4.055136000039056, 4.621565200039186, 5.13139770005364, 5.693909900030121]",147.0207948,None,147.0207948,None,0,LHKXQJZ,147.0207948,None,,,,,,,,,,,,,,,,,,,,,,,,,,,,,,,,,,,,,,,,,,,,,,,,,,,,,,,,,,,,,,,,,,,,,,,,,,,,,,,,,,,,,,,,,,,,,,,,,,,,,,,,,,,,,,,,S1,1,2019_Nov_12_1124,test_final,3.1.5,60.01925418
,,,,11,0,11,0,1,0,1,0,,,,,,,,,,,,,,,,,,,,,,,,,,,,,,,,,,,,,,,154.579924,None,,,,,,,,,,,,,,,,,,,,,,,,,,,,,,,,,,,,,,,,,,,,,,,,,,,,,,,,,,,,,,,,,,,,,,,,,,,,,,,,,,,,,,,,,,,,,,,,,,,,,,,,,,,,,,,,,,,,,,,,,,,S1,1,2019_Nov_12_1124,test_final,3.1.5,60.01925418
,,,,11,0,11,0,2,0,2,0,,,,,,,,,,,,,,,,,,,,,,,,,,,,,,,,,,,,,,,155.8787909,None,,,,,,,,,,,,,,,,,,,,,,,,,,,,,,,,,,,,,,,,,,,,,,,,,,,,,,,,,,,,,,,,,,,,,,,,,,,,,,,,,,,,,,,,,,,,,,,,,,,,,,,,,,,,,,,,,,,,,,,,,,,S1,1,2019_Nov_12_1124,test_final,3.1.5,60.01925418
,,,,11,0,11,0,3,0,3,0,,,,,,,,,,,,,,,,,,,,,,,,,,,,,,,,,,,,,,,157.1774392,None,,,,,,,,,,,,,,,,,,,,,,,,,,,,,,,,,,,,,,,,,,,,,,,,,,,,,,,,,,,,,,,,,,,,,,,,,,,,,,,,,,,,,,,,,,,,,,,,,,,,,,,,,,,,,,,,,,,,,,,,,,,S1,1,2019_Nov_12_1124,test_final,3.1.5,60.01925418
,,,,11,0,11,0,4,0,4,0,,,,,,,,,,,,,,,,,,,,,,,,,,,,,,,,,,,,,,,158.4762128,None,,,,,,,,,,,,,,,,,,,,,,,,,,,,,,,,,,,,,,,,,,,,,,,,,,,,,,,,,,,,,,,,,,,,,,,,,,,,,,,,,,,,,,,,,,,,,,,,,,,,,,,,,,,,,,,,,,,,,,,,,,,S1,1,2019_Nov_12_1124,test_final,3.1.5,60.01925418
,,,,11,0,11,0,5,0,5,0,,,,,,,,,,,,,,,,,,,,,,,,,,,,,,,,,,,,,,,159.7746121,None,,,,,,,,,,,,,,,,,,,,,,,,,,,,,,,,,,,,,,,,,,,,,,,,,,,,,,,,,,,,,,,,,,,,,,,,,,,,,,,,,,,,,,,,,,,,,,,,,,,,,,,,,,,,,,,,,,,,,,,,,,,S1,1,2019_Nov_12_1124,test_final,3.1.5,60.01925418
,,,,11,0,11,0,6,0,6,0,,,,,,,,,,,,,,,,,,,,,,,,,,,,,,,,,,,,,,,161.0735981,None,,,,,,,,,,,,,,,,,,,,,,,,,,,,,,,,,,,,,,,,,,,,,,,,,,,,,,,,,,,,,,,,,,,,,,,,,,,,,,,,,,,,,,,,,,,,,,,,,,,,,,,,,,,,,,,,,,,,,,,,,,,S1,1,2019_Nov_12_1124,test_final,3.1.5,60.01925418
,,,,12,0,12,0,0,0,0,0,,,,,,,,,,,,,,,,,,,,,,,,,,,,,,,,,,,,,,,168.3331548,None,vrkjxs,"['v', 'r', 'k', 'j', 'x', 's']","[1.3861854000715539, 2.0801549999741837, 3.648356399964541, 4.128231700044125, 4.52433160005603, 5.011495099985041, 5.404009800055064]",162.3724113,None,162.3724113,None,0,VRKJXSL,162.3724113,None,,,,,,,,,,,,,,,,,,,,,,,,,,,,,,,,,,,,,,,,,,,,,,,,,,,,,,,,,,,,,,,,,,,,,,,,,,,,,,,,,,,,,,,,,,,,,,,,,,,,,,,,,,,,,,,,S1,1,2019_Nov_12_1124,test_final,3.1.5,60.01925418
,,,,12,0,12,0,1,0,1,0,,,,,,,,,,,,,,,,,,,,,,,,,,,,,,,,,,,,,,,169.6483808,None,,,,,,,,,,,,,,,,,,,,,,,,,,,,,,,,,,,,,,,,,,,,,,,,,,,,,,,,,,,,,,,,,,,,,,,,,,,,,,,,,,,,,,,,,,,,,,,,,,,,,,,,,,,,,,,,,,,,,,,,,,,S1,1,2019_Nov_12_1124,test_final,3.1.5,60.01925418
,,,,12,0,12,0,2,0,2,0,,,,,,,,,,,,,,,,,,,,,,,,,,,,,,,,,,,,,,,170.9472699,None,,,,,,,,,,,,,,,,,,,,,,,,,,,,,,,,,,,,,,,,,,,,,,,,,,,,,,,,,,,,,,,,,,,,,,,,,,,,,,,,,,,,,,,,,,,,,,,,,,,,,,,,,,,,,,,,,,,,,,,,,,,S1,1,2019_Nov_12_1124,test_final,3.1.5,60.01925418
,,,,12,0,12,0,3,0,3,0,,,,,,,,,,,,,,,,,,,,,,,,,,,,,,,,,,,,,,,172.2458137,None,,,,,,,,,,,,,,,,,,,,,,,,,,,,,,,,,,,,,,,,,,,,,,,,,,,,,,,,,,,,,,,,,,,,,,,,,,,,,,,,,,,,,,,,,,,,,,,,,,,,,,,,,,,,,,,,,,,,,,,,,,,S1,1,2019_Nov_12_1124,test_final,3.1.5,60.01925418
,,,,12,0,12,0,4,0,4,0,,,,,,,,,,,,,,,,,,,,,,,,,,,,,,,,,,,,,,,173.5446571,None,,,,,,,,,,,,,,,,,,,,,,,,,,,,,,,,,,,,,,,,,,,,,,,,,,,,,,,,,,,,,,,,,,,,,,,,,,,,,,,,,,,,,,,,,,,,,,,,,,,,,,,,,,,,,,,,,,,,,,,,,,,S1,1,2019_Nov_12_1124,test_final,3.1.5,60.01925418
,,,,12,0,12,0,5,0,5,0,,,,,,,,,,,,,,,,,,,,,,,,,,,,,,,,,,,,,,,174.8434172,None,,,,,,,,,,,,,,,,,,,,,,,,,,,,,,,,,,,,,,,,,,,,,,,,,,,,,,,,,,,,,,,,,,,,,,,,,,,,,,,,,,,,,,,,,,,,,,,,,,,,,,,,,,,,,,,,,,,,,,,,,,,S1,1,2019_Nov_12_1124,test_final,3.1.5,60.01925418
,,,,12,0,12,0,6,0,6,0,,,,,,,,,,,,,,,,,,,,,,,,,,,,,,,,,,,,,,,176.1421329,175.6256388,,,,,,,,,,,,,,,,,,,,,,,,,,,,,,,,,,,,,,,,,,,,,,,,,,,,,,,,,,,,,,,,,,,,,,,,,,,,,,,,,,,,,,,,,,,,,,,,,,,,,,,,,,,,,,,,,,,,,,,,,,,S1,1,2019_Nov_12_1124,test_final,3.1.5,60.01925418
,,,,,,,,,,,,,,,,,,,,,,,,,,,,,,,,,,,,,,,,,,,,,,,,,,,,vjskrz,"['v', 'j', 's', 'k', 'r', 'z']","[1.930374599993229, 2.5300746000139043, 5.327430699951947, 5.863247600034811, 6.241569999954663, 6.736812199931592, 7.193708500009961]",177.4409604,None,177.4409604,None,0,VJZRKHX,177.4409604,None,185.2001437,None,space,5.2112696,185.2001437,None,,,,,,,,,,,,,,,,,,,,,,,,,,,,,,,,,,,,,,,,,,,,,,,,,,,,,,,,,,,,,,,,,,,,,,,,,,,,,,,,,,,,,,,,,,,,,,,,,,,,,,,,,,S1,1,2019_Nov_12_1124,test_final,3.1.5,60.01925418
Practice,9,(4/2) + 5,7,,,,,,,,,0,0,0,0,0,0,0,8,,,,,,,,,,,,,,,,,,,,,,,,,,,,,,,,,,,,,,,,,,,,,,,,,,7,191.0607208,None,['7'],0,[2.3867616000352427],191.0607208,None,191.0607208,None,[2.3867616000352427],191.0607208,None,193.9913844,None,,,,,,,,,,,,,,,,,,,,,,,,,,,,,,,,,,,,,,,,,,,,,,,,,,,,,,,,,,,,,,,,,,,,,,,,,,,,,,,,,,,,,,,,,,,S1,1,2019_Nov_12_1124,test_final,3.1.5,60.01925418
Practice,7,(4x6) - 17,7,,,,,,,,,0,0,0,0,0,1,1,6,,,,,,,,,,,,,,,,,,,,,,,,,,,,,,,,,,,,,,,,,,,,,,,,,,7,195.5062216,None,['7'],0,[11.076642100000754],195.5062216,None,195.5062216,None,"[2.3867616000352427, 11.076642100000754]",195.5062216,None,207.1280408,None,,,,,,,,,,,,,,,,,,,,,,,,,,,,,,,,,,,,,,,,,,,,,,,,,,,,,,,,,,,,,,,,,,,,,,,,,,,,,,,,,,,,,,,,,,,S1,1,2019_Nov_12_1124,test_final,3.1.5,60.01925418
Practice,4,(4x4) - 14,2,,,,,,,,,0,0,0,0,0,2,2,3,,,,,,,,,,,,,,,,,,,,,,,,,,,,,,,,,,,,,,,,,,,,,,,,,,2,208.6266532,None,['2'],0,[2.373790099984035],208.6266532,None,208.6266532,None,"[2.3867616000352427, 11.076642100000754, 2.373790099984035]",208.6266532,None,211.5408389,None,,,,,,,,,,,,,,,,,,,,,,,,,,,,,,,,,,,,,,,,,,,,,,,,,,,,,,,,,,,,,,,,,,,,,,,,,,,,,,,,,,,,,,,,,,,S1,1,2019_Nov_12_1124,test_final,3.1.5,60.01925418
Practice,6,(2x6) - 8,4,,,,,,,,,0,0,0,0,0,3,3,5,,,,,,,,,,,,,,,,,,,,,,,,,,,,,,,,,,,,,,,,,,,,,,,,,,8,213.0395989,None,['8'],0,[1.711826500017196],213.0395989,None,213.0395989,None,"[2.3867616000352427, 11.076642100000754, 2.373790099984035, 1.711826500017196]",213.0395989,None,215.2869139,None,,,,,,,,,,,,,,,,,,,,,,,,,,,,,,,,,,,,,,,,,,,,,,,,,,,,,,,,,,,,,,,,,,,,,,,,,,,,,,,,,,,,,,,,,,,S1,1,2019_Nov_12_1124,test_final,3.1.5,60.01925418
Practice,8,(3/3) + 5,6,,,,,,,,,0,0,0,0,0,4,4,7,,,,,,,,,,,,,,,,,,,,,,,,,,,,,,,,,,,,,,,,,,,,,,,,,,6,216.7856049,None,['6'],0,[3.937675500055775],216.7856049,None,216.7856049,None,"[2.3867616000352427, 11.076642100000754, 2.373790099984035, 1.711826500017196, 3.937675500055775]",216.7856049,None,221.2645052,None,,,,,,,,,,,,,,,,,,,,,,,,,,,,,,,,,,,,,,,,,,,,,,,,,,,,,,,,,,,,,,,,,,,,,,,,,,,,,,,,,,,,,,,,,,,S1,1,2019_Nov_12_1124,test_final,3.1.5,60.01925418
Practice,1,(1x2) + 1,3,,,,,,,,,0,0,0,0,0,5,5,0,,,,,,,,,,,,,,,,,,,,,,,,,,,,,,,,,,,,,,,,,,,,,,,,,,3,222.7627323,None,['3'],0,[1.5987601999659091],222.7627323,None,222.7627323,None,"[2.3867616000352427, 11.076642100000754, 2.373790099984035, 1.711826500017196, 3.937675500055775, 1.5987601999659091]",222.7627323,None,224.8942817,None,,,,,,,,,,,,,,,,,,,,,,,,,,,,,,,,,,,,,,,,,,,,,,,,,,,,,,,,,,,,,,,,,,,,,,,,,,,,,,,,,,,,,,,,,,,S1,1,2019_Nov_12_1124,test_final,3.1.5,60.01925418
Practice,10,(8/4) + 3,5,,,,,,,,,0,0,0,0,0,6,6,9,,,,,,,,,,,,,,,,,,,,,,,,,,,,,,,,,,,,,,,,,,,,,,,,,,5,226.3928285,None,['5'],0,[1.924766100011766],226.3928285,None,226.3928285,None,"[2.3867616000352427, 11.076642100000754, 2.373790099984035, 1.711826500017196, 3.937675500055775, 1.5987601999659091, 1.924766100011766]",226.3928285,None,228.8571188,None,,,,,,,,,,,,,,,,,,,,,,,,,,,,,,,,,,,,,,,,,,,,,,,,,,,,,,,,,,,,,,,,,,,,,,,,,,,,,,,,,,,,,,,,,,,S1,1,2019_Nov_12_1124,test_final,3.1.5,60.01925418
Practice,15,(9/3) - 2,1,,,,,,,,,0,0,0,0,0,7,7,14,,,,,,,,,,,,,,,,,,,,,,,,,,,,,,,,,,,,,,,,,,,,,,,,,,1,230.3552488,None,['1'],0,[1.4988490999676287],230.3552488,None,230.3552488,None,"[2.3867616000352427, 11.076642100000754, 2.373790099984035, 1.711826500017196, 3.937675500055775, 1.5987601999659091, 1.924766100011766, 1.4988490999676287]",230.3552488,None,232.3871604,None,,,,,,,,,,,,,,,,,,,,,,,,,,,,,,,,,,,,,,,,,,,,,,,,,,,,,,,,,,,,,,,,,,,,,,,,,,,,,,,,,,,,,,,,,,,S1,1,2019_Nov_12_1124,test_final,3.1.5,60.01925418
Practice,2,(1/1) - 1,0,,,,,,,,,0,0,0,0,0,8,8,1,,,,,,,,,,,,,,,,,,,,,,,,,,,,,,,,,,,,,,,,,,,,,,,,,,0,233.8856754,None,['0'],0,[1.931581599987112],233.8856754,None,233.8856754,None,"[2.3867616000352427, 11.076642100000754, 2.373790099984035, 1.711826500017196, 3.937675500055775, 1.5987601999659091, 1.924766100011766, 1.4988490999676287, 1.931581599987112]",233.8856754,None,236.349832,None,,,,,,,,,,,,,,,,,,,,,,,,,,,,,,,,,,,,,,,,,,,,,,,,,,,,,,,,,,,,,,,,,,,,,,,,,,,,,,,,,,,,,,,,,,,S1,1,2019_Nov_12_1124,test_final,3.1.5,60.01925418
Practice,13,(3x8) - 19 ,5,,,,,,,,,0,0,0,0,0,9,9,12,,,,,,,,,,,,,,,,,,,,,,,,,,,,,,,,,,,,,,,,,,,,,,,,,,5,237.8482544,None,['5'],0,[3.760837099980563],237.8482544,None,237.8482544,None,"[2.3867616000352427, 11.076642100000754, 2.373790099984035, 1.711826500017196, 3.937675500055775, 1.5987601999659091, 1.924766100011766, 1.4988490999676287, 1.931581599987112, 3.760837099980563]",237.8482544,None,242.1442607,None,,,,,,,,,,,,,,,,,,,,,,,,,,,,,,,,,,,,,,,,,,,,,,,,,,,,,,,,,,,,,,,,,,,,,,,,,,,,,,,,,,,,,,,,,,,S1,1,2019_Nov_12_1124,test_final,3.1.5,60.01925418
Practice,14,(6/3) + 4 ,6,,,,,,,,,0,0,0,0,0,10,10,13,,,,,,,,,,,,,,,,,,,,,,,,,,,,,,,,,,,,,,,,,,,,,,,,,,6,243.6427153,None,['6'],0,[2.7728658000705764],243.6427153,None,243.6427153,None,"[2.3867616000352427, 11.076642100000754, 2.373790099984035, 1.711826500017196, 3.937675500055775, 1.5987601999659091, 1.924766100011766, 1.4988490999676287, 1.931581599987112, 3.760837099980563, 2.7728658000705764]",243.6427153,None,246.9559613,None,,,,,,,,,,,,,,,,,,,,,,,,,,,,,,,,,,,,,,,,,,,,,,,,,,,,,,,,,,,,,,,,,,,,,,,,,,,,,,,,,,,,,,,,,,,S1,1,2019_Nov_12_1124,test_final,3.1.5,60.01925418
Practice,5,(3/3) + 2,3,,,,,,,,,0,0,0,0,0,11,11,4,,,,,,,,,,,,,,,,,,,,,,,,,,,,,,,,,,,,,,,,,,,,,,,,,,3,248.4546022,None,['3'],0,[1.7834090000251308],248.4546022,None,248.4546022,None,"[2.3867616000352427, 11.076642100000754, 2.373790099984035, 1.711826500017196, 3.937675500055775, 1.5987601999659091, 1.924766100011766, 1.4988490999676287, 1.931581599987112, 3.760837099980563, 2.7728658000705764, 1.7834090000251308]",248.4546022,None,250.785941,None,,,,,,,,,,,,,,,,,,,,,,,,,,,,,,,,,,,,,,,,,,,,,,,,,,,,,,,,,,,,,,,,,,,,,,,,,,,,,,,,,,,,,,,,,,,S1,1,2019_Nov_12_1124,test_final,3.1.5,60.01925418
Practice,12,(8/2) + 4,8,,,,,,,,,0,0,0,0,0,12,12,11,,,,,,,,,,,,,,,,,,,,,,,,,,,,,,,,,,,,,,,,,,,,,,,,,,8,252.2842468,None,['8'],0,[2.439700399991125],252.2842468,None,252.2842468,None,"[2.3867616000352427, 11.076642100000754, 2.373790099984035, 1.711826500017196, 3.937675500055775, 1.5987601999659091, 1.924766100011766, 1.4988490999676287, 1.931581599987112, 3.760837099980563, 2.7728658000705764, 1.7834090000251308, 2.439700399991125]",252.2842468,None,255.2642209,None,,,,,,,,,,,,,,,,,,,,,,,,,,,,,,,,,,,,,,,,,,,,,,,,,,,,,,,,,,,,,,,,,,,,,,,,,,,,,,,,,,,,,,,,,,,S1,1,2019_Nov_12_1124,test_final,3.1.5,60.01925418
Practice,11,(5x3) - 7,8,,,,,,,,,0,0,0,0,0,13,13,10,,,,,,,,,,,,,,,,,,,,,,,,,,,,,,,,,,,,,,,,,,,,,,,,,,8,256.7632285,None,['8'],0,[2.817879799986258],256.7632285,None,256.7632285,None,"[2.3867616000352427, 11.076642100000754, 2.373790099984035, 1.711826500017196, 3.937675500055775, 1.5987601999659091, 1.924766100011766, 1.4988490999676287, 1.931581599987112, 3.760837099980563, 2.7728658000705764, 1.7834090000251308, 2.439700399991125, 2.817879799986258]",256.7632285,None,260.1263877,None,,,,,,,,,,,,,,,,,,,,,,,,,,,,,,,,,,,,,,,,,,,,,,,,,,,,,,,,,,,,,,,,,,,,,,,,,,,,,,,,,,,,,,,,,,,S1,1,2019_Nov_12_1124,test_final,3.1.5,60.01925418
Practice,3,(7x2) - 5,9,,,,,,,,,0,0,0,0,0,14,14,2,,,,,,,,,,,,,,,,,,,,,,,,,,,,,,,,,,,,,,,,,,,,,,,,,,9,261.625167,None,['9'],0,[1.9246117000002414],261.625167,None,261.625167,None,"[2.3867616000352427, 11.076642100000754, 2.373790099984035, 1.711826500017196, 3.937675500055775, 1.5987601999659091, 1.924766100011766, 1.4988490999676287, 1.931581599987112, 3.760837099980563, 2.7728658000705764, 1.7834090000251308, 2.439700399991125, 2.817879799986258, 1.9246117000002414]",261.625167,None,264.0889442,None,,,,,,,,,,,,,,,,,,,,,,,,,,,,,,,,,,,,,,,,,,,,,,,,,,,,,,,,,,,,,,,,,,,,,,,,,,,,,,,,,,,,,,,,,,,S1,1,2019_Nov_12_1124,test_final,3.1.5,60.01925418
,,,,,,,,,,,,0,0,0,0,,,,,,,,,,,,,,,,,,,,,,,,,,,,,,,,,,,,,,,,,,,,,,,,,,,,,,,,,,,,,,,,,,,,,0.933333333,43.9399566,2.92933044,78.59275422,2.288999115,8.834948156,265.5883158,None,space,3.3978498,265.5883158,None,,,,,,,,,,,,,,,,,,,,,,,,,,,,,,,,,,,,,,,,,,,,,,,,,,,,,,,,,,,,,,,,,,,,,,,,,,,,,,,S1,1,2019_Nov_12_1124,test_final,3.1.5,60.01925418
,,,,,,,,,,,,,,,,,,,,,,,,,,,,,,,,,,,,,,,,,,,,,,,,,,,,,,,,,,,,,,,,,,,,,,,,,,,,,,,,,,,,,,,,,,,,,,,,269.5509045,None,space,12.5543648,269.5509045,None,,,,,,,,,,,,,,,,,,,,,,,,,,,,,,,,,,,,,,,,,,,,,,,,,,,,,,,,,,,,,,,,,,,,,,,,,S1,1,2019_Nov_12_1124,test_final,3.1.5,60.01925418
Practice,6,(2x6) - 8,4,,,,,,,,,,,,,,,,,0,0,0,0,0,0,0,0,0,0,0,5,,,,,,,,,,,,,,,,,,,,,,,,,,,,,,,,,,,,,,4,,,,,,,,,,,,,,,,,,,,,,,,,,,,,,,,,282.6715575,None,['4'],0,[2.510983500047587],282.6715575,None,282.6715575,None,282.6715575,None,1,285.2798037,None,285.2798037,None,,,,,,,,,,,,,,,,,,,,,,,,,,,,,,,,,,,,,,,,,,,,,,,,,,,,,,,,,S1,1,2019_Nov_12_1124,test_final,3.1.5,60.01925418
,,,,,,,,,,,,,,,,,,,,0,0,0,0,0,0,0,0,,,,,,,,,,,,,,,,,,,,,,,,,,,,,,,,,,,,,,,,,,,,,,,,,,,,,,,,,,,,,,,,,,,,,,,,,,,,,,,,,,,,,,,,,,,286.6171327,None,,,,,,,,,,,,,,,,,,,,,,,,,,,,,,,,,,,,,,,,,,,,,,,,,,,,,,,S1,1,2019_Nov_12_1124,test_final,3.1.5,60.01925418
Practice,11,(5x3) - 7,8,,,,,,,,,,,,,,,,,0,0,0,0,1,0,1,0,0,0,0,10,,,,,,,,,,,,,,,,,,,,,,,,,,,,,,,,,,,,,,9,,,,,,,,,,,,,,,,,,,,,,,,,,,,,,,,,287.915978,None,['9'],0,[6.454586199950427],287.915978,None,287.915978,None,287.915978,None,0,294.4674506,None,294.4674506,None,,,,,,,,,,,,,,,,,,,,,,,,,,,,,,,,,,,,,,,,,,,,,,,,,,,,,,,,,S1,1,2019_Nov_12_1124,test_final,3.1.5,60.01925418
Practice,15,(9/3) - 2,1,,,,,,,,,,,,,,,,,0,0,0,0,1,0,1,0,0,1,1,14,,,,,,,,,,,,,,,,,,,,,,,,,,,,,,,,,,,,,,1,,,,,,,,,,,,,,,,,,,,,,,,,,,,,,,,,295.8081661,None,['1'],0,[5.254772400017828],295.8081661,None,295.8081661,None,295.8081661,None,1,301.1278708,None,301.1278708,None,,,,,,,,,,,,,,,,,,,,,,,,,,,,,,,,,,,,,,,,,,,,,,,,,,,,,,,,,S1,1,2019_Nov_12_1124,test_final,3.1.5,60.01925418
,,,,,,,,,,,,,,,,,,,,0,0,0,0,1,0,1,0,,,,,,,,,,,,,,,,,,,,,,,,,,,,,,,,,,,,,,,,,,,,,,,,,,,,,,,,,,,,,,,,,,,,,,,,,,,,,,,,,,,,,,,,,,,302.4514735,None,,,,,,,,,,,,,,,,,,,,,,,,,,,,,,,,,,,,,,,,,,,,,,,,,,,,,,,S1,1,2019_Nov_12_1124,test_final,3.1.5,60.01925418
,,,,,,,,,,,,,,,,,,,,0,0,0,0,,,,,,,,,,,,,,,,,,,,,,,,,,,,,,,,,,,,,,,,,,,,,,,,,,,,,,,,,,,,,,,,,,,,,,,,,,,,,,,,,,,,,,,,,,,,,,,,,xt,"['x', 't']",0,"[1.5312568000517786, 1.7434038000646979, 2.3471206000540406]",303.7499639,None,303.7499639,None,303.7499639,None,1,306.6471961,None,,,,,,,,,,,,,,,,,,,,,,,,,,,,,,,,,,,,,,,,,,S1,1,2019_Nov_12_1124,test_final,3.1.5,60.01925418
Practice,9,(4/2) + 5,7,,,,,,,,,,,,,,,,,1,0,1,0,0,0,0,0,0,0,0,8,,,,,,,,,,,,,,,,,,,,,,,,,,,,,,,,,,,,,,7,,,,,,,,,,,,,,,,,,,,,,,,,,,,,,,,,308.179418,None,['7'],0,[2.1325713999103755],308.179418,None,308.179418,None,308.179418,None,1,310.4262298,None,310.4262298,None,,,,,,,,,,,,,,,,,,,,,,,,,,,,,,,,,,,,,,,,,,,,,,,,,,,,,,,,,S1,1,2019_Nov_12_1124,test_final,3.1.5,60.01925418
,,,,,,,,,,,,,,,,,,,,1,0,1,0,0,0,0,0,,,,,,,,,,,,,,,,,,,,,,,,,,,,,,,,,,,,,,,,,,,,,,,,,,,,,,,,,,,,,,,,,,,,,,,,,,,,,,,,,,,,,,,,,,,311.7591948,None,,,,,,,,,,,,,,,,,,,,,,,,,,,,,,,,,,,,,,,,,,,,,,,,,,,,,,,S1,1,2019_Nov_12_1124,test_final,3.1.5,60.01925418
Practice,10,(8/4) + 3,5,,,,,,,,,,,,,,,,,1,0,1,0,1,0,1,0,0,0,0,9,,,,,,,,,,,,,,,,,,,,,,,,,,,,,,,,,,,,,,5,,,,,,,,,,,,,,,,,,,,,,,,,,,,,,,,,313.0746126,None,['5'],0,[2.5125815999927],313.0746126,None,313.0746126,None,313.0746126,None,1,315.6760398,None,315.6760398,None,,,,,,,,,,,,,,,,,,,,,,,,,,,,,,,,,,,,,,,,,,,,,,,,,,,,,,,,,S1,1,2019_Nov_12_1124,test_final,3.1.5,60.01925418
,,,,,,,,,,,,,,,,,,,,1,0,1,0,1,0,1,0,,,,,,,,,,,,,,,,,,,,,,,,,,,,,,,,,,,,,,,,,,,,,,,,,,,,,,,,,,,,,,,,,,,,,,,,,,,,,,,,,,,,,,,,,,,317.0206417,None,,,,,,,,,,,,,,,,,,,,,,,,,,,,,,,,,,,,,,,,,,,,,,,,,,,,,,,S1,1,2019_Nov_12_1124,test_final,3.1.5,60.01925418
,,,,,,,,,,,,,,,,,,,,1,0,1,0,,,,,,,,,,,,,,,,,,,,,,,,,,,,,,,,,,,,,,,,,,,,,,,,,,,,,,,,,,,,,,,,,,,,,,,,,,,,,,,,,,,,,,,,,,,,,,,,,sx,"['s', 'x']",0,"[0.798539699986577, 1.046621200046502, 1.454062500037253]",318.3027923,None,318.3027923,None,318.3027923,None,1,320.3174161,None,,,,,,,,,,,,,,,,,,,,,,,,,,,,,,,,,,,,,,,,,,S1,1,2019_Nov_12_1124,test_final,3.1.5,60.01925418
Practice,7,(4x6) - 17,7,,,,,,,,,,,,,,,,,2,0,2,0,0,0,0,0,0,0,0,6,,,,,,,,,,,,,,,,,,,,,,,,,,,,,,,,,,,,,,7,,,,,,,,,,,,,,,,,,,,,,,,,,,,,,,,,321.8493075,None,['7'],0,[6.082644799957052],321.8493075,None,321.8493075,None,321.8493075,None,1,328.0282736,None,328.0282736,None,,,,,,,,,,,,,,,,,,,,,,,,,,,,,,,,,,,,,,,,,,,,,,,,,,,,,,,,,S1,1,2019_Nov_12_1124,test_final,3.1.5,60.01925418
,,,,,,,,,,,,,,,,,,,,2,0,2,0,0,0,0,0,,,,,,,,,,,,,,,,,,,,,,,,,,,,,,,,,,,,,,,,,,,,,,,,,,,,,,,,,,,,,,,,,,,,,,,,,,,,,,,,,,,,,,,,,,,329.3754163,None,,,,,,,,,,,,,,,,,,,,,,,,,,,,,,,,,,,,,,,,,,,,,,,,,,,,,,,S1,1,2019_Nov_12_1124,test_final,3.1.5,60.01925418
Practice,10,(8/4) + 3,5,,,,,,,,,,,,,,,,,2,0,2,0,1,0,1,0,0,0,0,9,,,,,,,,,,,,,,,,,,,,,,,,,,,,,,,,,,,,,,5,,,,,,,,,,,,,,,,,,,,,,,,,,,,,,,,,330.6906012,None,['5'],0,[2.2583181000081822],330.6906012,None,330.6906012,None,330.6906012,None,1,333.0454161,None,333.0454161,None,,,,,,,,,,,,,,,,,,,,,,,,,,,,,,,,,,,,,,,,,,,,,,,,,,,,,,,,,S1,1,2019_Nov_12_1124,test_final,3.1.5,60.01925418
,,,,,,,,,,,,,,,,,,,,2,0,2,0,1,0,1,0,,,,,,,,,,,,,,,,,,,,,,,,,,,,,,,,,,,,,,,,,,,,,,,,,,,,,,,,,,,,,,,,,,,,,,,,,,,,,,,,,,,,,,,,,,,334.3867534,None,,,,,,,,,,,,,,,,,,,,,,,,,,,,,,,,,,,,,,,,,,,,,,,,,,,,,,,S1,1,2019_Nov_12_1124,test_final,3.1.5,60.01925418
,,,,,,,,,,,,,,,,,,,,2,0,2,0,,,,,,,,,,,,,,,,,,,,,,,,,,,,,,,,,,,,,,,,,,,,,,,,,,,,,,,,,,,,,,,,,,,,,,,,,,,,,,,,,,,,,,,,,,,,,,,,,vj,"['v', 'j']",0,"[0.8698597999755293, 0.9932323000393808, 1.4221626999787986]",335.6691646,None,335.6691646,None,335.6691646,None,1,337.6502881,None,,,,,,,,,,,,,,,,,,,,,,,,,,,,,,,,,,,,,,,,,,S1,1,2019_Nov_12_1124,test_final,3.1.5,60.01925418
,,,,,,,,,,,,,,,,,,,,,,,,,,,,,,,,,,,,,,,,,,,,,,,,,,,,,,,,,,,,,,,,,,,,,,,,,,,,,,,,,,,,,,,,,,,,,,,,,,,,,,,,,,,,,,,,,,,,,,,,,,,,,,,,,,,,,339.1663531,None,space,7.5864482,339.1663531,None,,,,,,,,,,,,,,,,,,,,,,,,,,,,,,,,,,,,S1,1,2019_Nov_12_1124,test_final,3.1.5,60.01925418
Practice,15,(9/3) - 2,1,,,,,,,,,,,,,,,,,,,,,,,,,,,,,0,0,0,0,0,0,0,0,0,0,0,14,,,,,,,,,,,,,,,,,,,,,,,,,,1,,,,,,,,,,,,,,,,,,,,,,,,,,,,,,,,,,,,,,,,,,,,1,,,,,,,,,,,,,,,,,,,,,,,,,,347.3404307,None,['1'],0,[2.7666109000565484],347.3404307,None,347.3404307,None,347.3404307,None,350.2122323,None,350.2122323,None,,,,,,,,,,,,,,,,,,,,,S1,1,2019_Nov_12_1124,test_final,3.1.5,60.01925418
,,,,,,,,,,,,,,,,,,,,,,,,,,,,,,,,0,0,0,0,0,0,0,0,,,,,,,,,,,,,,,,,,,,,,,,,,,,,,,,,,,,,,,,,,,,,,,,,,,,,,,,,,,,,,,,,,,,,,,,,,,,,,,,,,,,,,,,,,,,,,,,,,,,,,,,,,,,,,,,,,,351.5368544,None,,,,,,,,,,,,,,,,,,,S1,1,2019_Nov_12_1124,test_final,3.1.5,60.01925418
Practice,4,(4x4) - 14,2,,,,,,,,,,,,,,,,,,,,,,,,,,,,,0,0,0,0,1,0,1,0,0,0,0,3,,,,,,,,,,,,,,,,,,,,,,,,,,2,,,,,,,,,,,,,,,,,,,,,,,,,,,,,,,,,,,,,,,,,,,,1,,,,,,,,,,,,,,,,,,,,,,,,,,352.8689443,None,['2'],0,[2.617071200045757],352.8689443,None,352.8689443,None,352.8689443,None,355.5718077,None,355.5718077,None,,,,,,,,,,,,,,,,,,,,,S1,1,2019_Nov_12_1124,test_final,3.1.5,60.01925418
,,,,,,,,,,,,,,,,,,,,,,,,,,,,,,,,0,0,0,0,1,0,1,0,,,,,,,,,,,,,,,,,,,,,,,,,,,,,,,,,,,,,,,,,,,,,,,,,,,,,,,,,,,,,,,,,,,,,,,,,,,,,,,,,,,,,,,,,,,,,,,,,,,,,,,,,,,,,,,,,,,356.914964,None,,,,,,,,,,,,,,,,,,,S1,1,2019_Nov_12_1124,test_final,3.1.5,60.01925418
,,,,,,,,,,,,,,,,,,,,,,,,,,,,,,,,0,0,0,0,,,,,,,,,,,,,,,,,,,,,,,,,,,,,,,,,,,,,,,,,,,,,,,,,,,,,,,,,,,,,,,,,,,,,,,,,,,,,,,,,,,,,,,,,,,,,,,,,,,,,,,,,,,,,,,,,,,,,,,,,vl,"['v', 'l']",0,"[0.8306581999640912, 0.9737170999869704, 1.3590770999435335]",358.196953,None,358.196953,None,1,VL,358.196953,None,,,,,,,S1,1,2019_Nov_12_1124,test_final,3.1.5,60.01925418
Practice,3,(7x2) - 5,9,,,,,,,,,,,,,,,,,,,,,,,,,,,,,1,0,1,0,0,0,0,0,0,0,0,2,,,,,,,,,,,,,,,,,,,,,,,,,,9,,,,,,,,,,,,,,,,,,,,,,,,,,,,,,,,,,,,,,,,,,,,1,,,,,,,,,,,,,,,,,,,,,,,,,,360.1283102,None,['9'],0,[2.329022099962458],360.1283102,None,360.1283102,None,360.1283102,None,362.5425205,None,362.5425205,None,,,,,,,,,,,,,,,,,,,,,S1,1,2019_Nov_12_1124,test_final,3.1.5,60.01925418
,,,,,,,,,,,,,,,,,,,,,,,,,,,,,,,,1,0,1,0,0,0,0,0,,,,,,,,,,,,,,,,,,,,,,,,,,,,,,,,,,,,,,,,,,,,,,,,,,,,,,,,,,,,,,,,,,,,,,,,,,,,,,,,,,,,,,,,,,,,,,,,,,,,,,,,,,,,,,,,,,,363.8746996,None,,,,,,,,,,,,,,,,,,,S1,1,2019_Nov_12_1124,test_final,3.1.5,60.01925418
Practice,12,(8/2) + 4,8,,,,,,,,,,,,,,,,,,,,,,,,,,,,,1,0,1,0,1,0,1,0,0,0,0,11,,,,,,,,,,,,,,,,,,,,,,,,,,8,,,,,,,,,,,,,,,,,,,,,,,,,,,,,,,,,,,,,,,,,,,,1,,,,,,,,,,,,,,,,,,,,,,,,,,365.1902814,None,['8'],0,[2.160794699913822],365.1902814,None,365.1902814,None,365.1902814,None,367.4332391,None,367.4332391,None,,,,,,,,,,,,,,,,,,,,,S1,1,2019_Nov_12_1124,test_final,3.1.5,60.01925418
,,,,,,,,,,,,,,,,,,,,,,,,,,,,,,,,1,0,1,0,1,0,1,0,,,,,,,,,,,,,,,,,,,,,,,,,,,,,,,,,,,,,,,,,,,,,,,,,,,,,,,,,,,,,,,,,,,,,,,,,,,,,,,,,,,,,,,,,,,,,,,,,,,,,,,,,,,,,,,,,,,368.7698114,None,,,,,,,,,,,,,,,,,,,S1,1,2019_Nov_12_1124,test_final,3.1.5,60.01925418
Practice,13,(3x8) - 19 ,5,,,,,,,,,,,,,,,,,,,,,,,,,,,,,1,0,1,0,2,0,2,0,0,0,0,12,,,,,,,,,,,,,,,,,,,,,,,,,,5,,,,,,,,,,,,,,,,,,,,,,,,,,,,,,,,,,,,,,,,,,,,1,,,,,,,,,,,,,,,,,,,,,,,,,,370.1017844,None,['5'],0,[5.195729699917138],370.1017844,None,370.1017844,None,370.1017844,None,375.3615044,None,375.3615044,None,,,,,,,,,,,,,,,,,,,,,S1,1,2019_Nov_12_1124,test_final,3.1.5,60.01925418
,,,,,,,,,,,,,,,,,,,,,,,,,,,,,,,,1,0,1,0,2,0,2,0,,,,,,,,,,,,,,,,,,,,,,,,,,,,,,,,,,,,,,,,,,,,,,,,,,,,,,,,,,,,,,,,,,,,,,,,,,,,,,,,,,,,,,,,,,,,,,,,,,,,,,,,,,,,,,,,,,,376.7117765,None,,,,,,,,,,,,,,,,,,,S1,1,2019_Nov_12_1124,test_final,3.1.5,60.01925418
,,,,,,,,,,,,,,,,,,,,,,,,,,,,,,,,1,0,1,0,,,,,,,,,,,,,,,,,,,,,,,,,,,,,,,,,,,,,,,,,,,,,,,,,,,,,,,,,,,,,,,,,,,,,,,,,,,,,,,,,,,,,,,,,,,,,,,,,,,,,,,,,,,,,,,,,,,,,,,,,kqr,"['k', 'q', 'r']",0,"[0.8197150999912992, 1.1202068000566214, 1.4278843000065535, 1.719223599997349]",377.9944134,None,377.9944134,None,1,KQR,377.9944134,None,,,,,,,S1,1,2019_Nov_12_1124,test_final,3.1.5,60.01925418
Practice,8,(3/3) + 5,6,,,,,,,,,,,,,,,,,,,,,,,,,,,,,2,0,2,0,0,0,0,0,0,0,0,7,,,,,,,,,,,,,,,,,,,,,,,,,,6,,,,,,,,,,,,,,,,,,,,,,,,,,,,,,,,,,,,,,,,,,,,1,,,,,,,,,,,,,,,,,,,,,,,,,,380.2919872,None,['6'],0,[2.068093299982138],380.2919872,None,380.2919872,None,380.2919872,None,382.4399246,None,382.4399246,None,,,,,,,,,,,,,,,,,,,,,S1,1,2019_Nov_12_1124,test_final,3.1.5,60.01925418
,,,,,,,,,,,,,,,,,,,,,,,,,,,,,,,,2,0,2,0,0,0,0,0,,,,,,,,,,,,,,,,,,,,,,,,,,,,,,,,,,,,,,,,,,,,,,,,,,,,,,,,,,,,,,,,,,,,,,,,,,,,,,,,,,,,,,,,,,,,,,,,,,,,,,,,,,,,,,,,,,,383.7882574,None,,,,,,,,,,,,,,,,,,,S1,1,2019_Nov_12_1124,test_final,3.1.5,60.01925418
Practice,4,(4x4) - 14,2,,,,,,,,,,,,,,,,,,,,,,,,,,,,,2,0,2,0,1,0,1,0,0,0,0,3,,,,,,,,,,,,,,,,,,,,,,,,,,2,,,,,,,,,,,,,,,,,,,,,,,,,,,,,,,,,,,,,,,,,,,,1,,,,,,,,,,,,,,,,,,,,,,,,,,385.1040221,None,['2'],0,[2.2728383999783546],385.1040221,None,385.1040221,None,385.1040221,None,387.4644839,None,387.4644839,None,,,,,,,,,,,,,,,,,,,,,S1,1,2019_Nov_12_1124,test_final,3.1.5,60.01925418
,,,,,,,,,,,,,,,,,,,,,,,,,,,,,,,,2,0,2,0,1,0,1,0,,,,,,,,,,,,,,,,,,,,,,,,,,,,,,,,,,,,,,,,,,,,,,,,,,,,,,,,,,,,,,,,,,,,,,,,,,,,,,,,,,,,,,,,,,,,,,,,,,,,,,,,,,,,,,,,,,,388.8168977,None,,,,,,,,,,,,,,,,,,,S1,1,2019_Nov_12_1124,test_final,3.1.5,60.01925418
Practice,13,(3x8) - 19 ,5,,,,,,,,,,,,,,,,,,,,,,,,,,,,,2,0,2,0,2,0,2,0,0,0,0,12,,,,,,,,,,,,,,,,,,,,,,,,,,5,,,,,,,,,,,,,,,,,,,,,,,,,,,,,,,,,,,,,,,,,,,,1,,,,,,,,,,,,,,,,,,,,,,,,,,390.13214,None,['5'],0,[2.809455499984324],390.13214,None,390.13214,None,390.13214,None,393.0299214,None,393.0299214,None,,,,,,,,,,,,,,,,,,,,,S1,1,2019_Nov_12_1124,test_final,3.1.5,60.01925418
,,,,,,,,,,,,,,,,,,,,,,,,,,,,,,,,2,0,2,0,2,0,2,0,,,,,,,,,,,,,,,,,,,,,,,,,,,,,,,,,,,,,,,,,,,,,,,,,,,,,,,,,,,,,,,,,,,,,,,,,,,,,,,,,,,,,,,,,,,,,,,,,,,,,,,,,,,,,,,,,,,394.3777351,None,,,,,,,,,,,,,,,,,,,S1,1,2019_Nov_12_1124,test_final,3.1.5,60.01925418
Practice,7,(4x6) - 17,7,,,,,,,,,,,,,,,,,,,,,,,,,,,,,2,0,2,0,3,0,3,0,0,0,0,6,,,,,,,,,,,,,,,,,,,,,,,,,,7,,,,,,,,,,,,,,,,,,,,,,,,,,,,,,,,,,,,,,,,,,,,1,,,,,,,,,,,,,,,,,,,,,,,,,,395.6767301,None,['7'],0,[8.414318300085142],395.6767301,None,395.6767301,None,395.6767301,None,404.1773979,None,404.1773979,None,,,,,,,,,,,,,,,,,,,,,S1,1,2019_Nov_12_1124,test_final,3.1.5,60.01925418
,,,,,,,,,,,,,,,,,,,,,,,,,,,,,,,,2,0,2,0,3,0,3,0,,,,,,,,,,,,,,,,,,,,,,,,,,,,,,,,,,,,,,,,,,,,,,,,,,,,,,,,,,,,,,,,,,,,,,,,,,,,,,,,,,,,,,,,,,,,,,,,,,,,,,,,,,,,,,,,,,,405.5338922,None,,,,,,,,,,,,,,,,,,,S1,1,2019_Nov_12_1124,test_final,3.1.5,60.01925418
,,,,,,,,,,,,,,,,,,,,,,,,,,,,,,,,2,0,2,0,,,,,,,,,,,,,,,,,,,,,,,,,,,,,,,,,,,,,,,,,,,,,,,,,,,,,,,,,,,,,,,,,,,,,,,,,,,,,,,,,,,,,,,,,,,,,,,,,,,,,,,,,,,,,,,,,,,,,,,,,vkzj,"['v', 'k', 'z', 'j']",0,"[0.9081846000626683, 1.1715421000262722, 1.5961569000501186, 1.8791973000625148, 2.4808036000467837]",406.8159314,None,406.8159314,None,1,VKZJ,406.8159314,None,,,,,,,S1,1,2019_Nov_12_1124,test_final,3.1.5,60.01925418
Practice,14,(6/3) + 4 ,6,,,,,,,,,,,,,,,,,,,,,,,,,,,,,3,0,3,0,0,0,0,0,0,0,0,13,,,,,,,,,,,,,,,,,,,,,,,,,,6,,,,,,,,,,,,,,,,,,,,,,,,,,,,,,,,,,,,,,,,,,,,1,,,,,,,,,,,,,,,,,,,,,,,,,,409.8795293,None,['6'],0,[2.5317824999801815],409.8795293,None,409.8795293,None,409.8795293,None,412.4952502,None,412.4952502,None,,,,,,,,,,,,,,,,,,,,,S1,1,2019_Nov_12_1124,test_final,3.1.5,60.01925418
,,,,,,,,,,,,,,,,,,,,,,,,,,,,,,,,3,0,3,0,0,0,0,0,,,,,,,,,,,,,,,,,,,,,,,,,,,,,,,,,,,,,,,,,,,,,,,,,,,,,,,,,,,,,,,,,,,,,,,,,,,,,,,,,,,,,,,,,,,,,,,,,,,,,,,,,,,,,,,,,,,413.8423291,None,,,,,,,,,,,,,,,,,,,S1,1,2019_Nov_12_1124,test_final,3.1.5,60.01925418
Practice,10,(8/4) + 3,5,,,,,,,,,,,,,,,,,,,,,,,,,,,,,3,0,3,0,1,0,1,0,0,0,0,9,,,,,,,,,,,,,,,,,,,,,,,,,,5,,,,,,,,,,,,,,,,,,,,,,,,,,,,,,,,,,,,,,,,,,,,1,,,,,,,,,,,,,,,,,,,,,,,,,,415.1577004,None,['5'],0,[3.6576952000614256],415.1577004,None,415.1577004,None,415.1577004,None,418.8990283,None,418.8990283,None,,,,,,,,,,,,,,,,,,,,,S1,1,2019_Nov_12_1124,test_final,3.1.5,60.01925418
,,,,,,,,,,,,,,,,,,,,,,,,,,,,,,,,3,0,3,0,1,0,1,0,,,,,,,,,,,,,,,,,,,,,,,,,,,,,,,,,,,,,,,,,,,,,,,,,,,,,,,,,,,,,,,,,,,,,,,,,,,,,,,,,,,,,,,,,,,,,,,,,,,,,,,,,,,,,,,,,,,420.2527735,None,,,,,,,,,,,,,,,,,,,S1,1,2019_Nov_12_1124,test_final,3.1.5,60.01925418
Practice,6,(2x6) - 8,4,,,,,,,,,,,,,,,,,,,,,,,,,,,,,3,0,3,0,2,0,2,0,0,0,0,5,,,,,,,,,,,,,,,,,,,,,,,,,,4,,,,,,,,,,,,,,,,,,,,,,,,,,,,,,,,,,,,,,,,,,,,1,,,,,,,,,,,,,,,,,,,,,,,,,,421.5515086,None,['4'],0,[4.0782290999777615],421.5515086,None,421.5515086,None,421.5515086,None,425.7106929,None,425.7106929,None,,,,,,,,,,,,,,,,,,,,,S1,1,2019_Nov_12_1124,test_final,3.1.5,60.01925418
,,,,,,,,,,,,,,,,,,,,,,,,,,,,,,,,3,0,3,0,2,0,2,0,,,,,,,,,,,,,,,,,,,,,,,,,,,,,,,,,,,,,,,,,,,,,,,,,,,,,,,,,,,,,,,,,,,,,,,,,,,,,,,,,,,,,,,,,,,,,,,,,,,,,,,,,,,,,,,,,,,427.0460447,None,,,,,,,,,,,,,,,,,,,S1,1,2019_Nov_12_1124,test_final,3.1.5,60.01925418
Practice,11,(5x3) - 7,8,,,,,,,,,,,,,,,,,,,,,,,,,,,,,3,0,3,0,3,0,3,0,0,0,0,10,,,,,,,,,,,,,,,,,,,,,,,,,,8,,,,,,,,,,,,,,,,,,,,,,,,,,,,,,,,,,,,,,,,,,,,1,,,,,,,,,,,,,,,,,,,,,,,,,,428.378114,None,['8'],0,[4.2583054000278935],428.378114,None,428.378114,None,428.378114,None,432.7174504,None,432.7174504,None,,,,,,,,,,,,,,,,,,,,,S1,1,2019_Nov_12_1124,test_final,3.1.5,60.01925418
,,,,,,,,,,,,,,,,,,,,,,,,,,,,,,,,3,0,3,0,3,0,3,0,,,,,,,,,,,,,,,,,,,,,,,,,,,,,,,,,,,,,,,,,,,,,,,,,,,,,,,,,,,,,,,,,,,,,,,,,,,,,,,,,,,,,,,,,,,,,,,,,,,,,,,,,,,,,,,,,,,434.07251,None,,,,,,,,,,,,,,,,,,,S1,1,2019_Nov_12_1124,test_final,3.1.5,60.01925418
Practice,7,(4x6) - 17,7,,,,,,,,,,,,,,,,,,,,,,,,,,,,,3,0,3,0,4,0,4,0,0,0,0,6,,,,,,,,,,,,,,,,,,,,,,,,,,7,,,,,,,,,,,,,,,,,,,,,,,,,,,,,,,,,,,,,,,,,,,,1,,,,,,,,,,,,,,,,,,,,,,,,,,435.3711857,None,['7'],0,[3.7049157000146806],435.3711857,None,435.3711857,None,435.3711857,None,439.1443508,None,439.1443508,None,,,,,,,,,,,,,,,,,,,,,S1,1,2019_Nov_12_1124,test_final,3.1.5,60.01925418
,,,,,,,,,,,,,,,,,,,,,,,,,,,,,,,,3,0,3,0,4,0,4,0,,,,,,,,,,,,,,,,,,,,,,,,,,,,,,,,,,,,,,,,,,,,,,,,,,,,,,,,,,,,,,,,,,,,,,,,,,,,,,,,,,,,,,,,,,,,,,,,,,,,,,,,,,,,,,,,,,,440.4829974,None,,,,,,,,,,,,,,,,,,,S1,1,2019_Nov_12_1124,test_final,3.1.5,60.01925418
,,,,,,,,,,,,,,,,,,,,,,,,,,,,,,,,3,0,3,0,,,,,,,,,,,,,,,,,,,,,,,,,,,,,,,,,,,,,,,,,,,,,,,,,,,,,,,,,,,,,,,,,,,,,,,,,,,,,,,,,,,,,,,,,,,,,,,,,,,,,,,,,,,,,,,,,,,,,,,,,njvrl,"['n', 'j', 'v', 'r', 'l']",0,"[0.8922468000091612, 1.380735700018704, 1.7115109000587836, 1.9471673000371084, 2.1369733000174165, 2.661985900020227]",441.7815854,None,441.7815854,None,1,NJVRL,441.7815854,None,,,,,,,S1,1,2019_Nov_12_1124,test_final,3.1.5,60.01925418
Practice,13,(3x8) - 19 ,5,,,,,,,,,,,,,,,,,,,,,,,,,,,,,4,0,4,0,0,0,0,0,0,0,0,12,,,,,,,,,,,,,,,,,,,,,,,,,,5,,,,,,,,,,,,,,,,,,,,,,,,,,,,,,,,,,,,,,,,,,,,1,,,,,,,,,,,,,,,,,,,,,,,,,,445.0117335,None,['5'],0,[3.170197599916719],445.0117335,None,445.0117335,None,445.0117335,None,448.2592268,None,448.2592268,None,,,,,,,,,,,,,,,,,,,,,S1,1,2019_Nov_12_1124,test_final,3.1.5,60.01925418
,,,,,,,,,,,,,,,,,,,,,,,,,,,,,,,,4,0,4,0,0,0,0,0,,,,,,,,,,,,,,,,,,,,,,,,,,,,,,,,,,,,,,,,,,,,,,,,,,,,,,,,,,,,,,,,,,,,,,,,,,,,,,,,,,,,,,,,,,,,,,,,,,,,,,,,,,,,,,,,,,,449.5906808,None,,,,,,,,,,,,,,,,,,,S1,1,2019_Nov_12_1124,test_final,3.1.5,60.01925418
Practice,14,(6/3) + 4 ,6,,,,,,,,,,,,,,,,,,,,,,,,,,,,,4,0,4,0,1,0,1,0,0,0,0,13,,,,,,,,,,,,,,,,,,,,,,,,,,6,,,,,,,,,,,,,,,,,,,,,,,,,,,,,,,,,,,,,,,,,,,,1,,,,,,,,,,,,,,,,,,,,,,,,,,450.9226594,None,['6'],0,[2.147647799924016],450.9226594,None,450.9226594,None,450.9226594,None,453.1375678,None,453.1375678,None,,,,,,,,,,,,,,,,,,,,,S1,1,2019_Nov_12_1124,test_final,3.1.5,60.01925418
,,,,,,,,,,,,,,,,,,,,,,,,,,,,,,,,4,0,4,0,1,0,1,0,,,,,,,,,,,,,,,,,,,,,,,,,,,,,,,,,,,,,,,,,,,,,,,,,,,,,,,,,,,,,,,,,,,,,,,,,,,,,,,,,,,,,,,,,,,,,,,,,,,,,,,,,,,,,,,,,,,454.4858869,None,,,,,,,,,,,,,,,,,,,S1,1,2019_Nov_12_1124,test_final,3.1.5,60.01925418
Practice,2,(1/1) - 1,0,,,,,,,,,,,,,,,,,,,,,,,,,,,,,4,0,4,0,2,0,2,0,0,0,0,1,,,,,,,,,,,,,,,,,,,,,,,,,,0,,,,,,,,,,,,,,,,,,,,,,,,,,,,,,,,,,,,,,,,,,,,1,,,,,,,,,,,,,,,,,,,,,,,,,,455.8012018,None,['0'],0,[2.7965056999819353],455.8012018,None,455.8012018,None,455.8012018,None,458.6785991,None,458.6785991,None,,,,,,,,,,,,,,,,,,,,,S1,1,2019_Nov_12_1124,test_final,3.1.5,60.01925418
,,,,,,,,,,,,,,,,,,,,,,,,,,,,,,,,4,0,4,0,2,0,2,0,,,,,,,,,,,,,,,,,,,,,,,,,,,,,,,,,,,,,,,,,,,,,,,,,,,,,,,,,,,,,,,,,,,,,,,,,,,,,,,,,,,,,,,,,,,,,,,,,,,,,,,,,,,,,,,,,,,460.0304002,None,,,,,,,,,,,,,,,,,,,S1,1,2019_Nov_12_1124,test_final,3.1.5,60.01925418
Practice,8,(3/3) + 5,6,,,,,,,,,,,,,,,,,,,,,,,,,,,,,4,0,4,0,3,0,3,0,0,0,0,7,,,,,,,,,,,,,,,,,,,,,,,,,,6,,,,,,,,,,,,,,,,,,,,,,,,,,,,,,,,,,,,,,,,,,,,1,,,,,,,,,,,,,,,,,,,,,,,,,,461.3292283,None,['6'],0,[2.371466299984604],461.3292283,None,461.3292283,None,461.3292283,None,463.785978,None,463.785978,None,,,,,,,,,,,,,,,,,,,,,S1,1,2019_Nov_12_1124,test_final,3.1.5,60.01925418
,,,,,,,,,,,,,,,,,,,,,,,,,,,,,,,,4,0,4,0,3,0,3,0,,,,,,,,,,,,,,,,,,,,,,,,,,,,,,,,,,,,,,,,,,,,,,,,,,,,,,,,,,,,,,,,,,,,,,,,,,,,,,,,,,,,,,,,,,,,,,,,,,,,,,,,,,,,,,,,,,,465.1253681,None,,,,,,,,,,,,,,,,,,,S1,1,2019_Nov_12_1124,test_final,3.1.5,60.01925418
Practice,11,(5x3) - 7,8,,,,,,,,,,,,,,,,,,,,,,,,,,,,,4,0,4,0,4,0,4,0,0,0,0,10,,,,,,,,,,,,,,,,,,,,,,,,,,8,,,,,,,,,,,,,,,,,,,,,,,,,,,,,,,,,,,,,,,,,,,,1,,,,,,,,,,,,,,,,,,,,,,,,,,466.4573081,None,['8'],0,[2.5794812999665737],466.4573081,None,466.4573081,None,466.4573081,None,469.1065814,None,469.1065814,None,,,,,,,,,,,,,,,,,,,,,S1,1,2019_Nov_12_1124,test_final,3.1.5,60.01925418
,,,,,,,,,,,,,,,,,,,,,,,,,,,,,,,,4,0,4,0,4,0,4,0,,,,,,,,,,,,,,,,,,,,,,,,,,,,,,,,,,,,,,,,,,,,,,,,,,,,,,,,,,,,,,,,,,,,,,,,,,,,,,,,,,,,,,,,,,,,,,,,,,,,,,,,,,,,,,,,,,,470.4368647,None,,,,,,,,,,,,,,,,,,,S1,1,2019_Nov_12_1124,test_final,3.1.5,60.01925418
Practice,7,(4x6) - 17,7,,,,,,,,,,,,,,,,,,,,,,,,,,,,,4,0,4,0,5,0,5,0,0,0,0,6,,,,,,,,,,,,,,,,,,,,,,,,,,7,,,,,,,,,,,,,,,,,,,,,,,,,,,,,,,,,,,,,,,,,,,,1,,,,,,,,,,,,,,,,,,,,,,,,,,471.7687346,None,['7'],0,[3.1103697000071406],471.7687346,None,471.7687346,None,471.7687346,None,474.9663294,None,474.9663294,None,,,,,,,,,,,,,,,,,,,,,S1,1,2019_Nov_12_1124,test_final,3.1.5,60.01925418
,,,,,,,,,,,,,,,,,,,,,,,,,,,,,,,,4,0,4,0,5,0,5,0,,,,,,,,,,,,,,,,,,,,,,,,,,,,,,,,,,,,,,,,,,,,,,,,,,,,,,,,,,,,,,,,,,,,,,,,,,,,,,,,,,,,,,,,,,,,,,,,,,,,,,,,,,,,,,,,,,,476.3145551,None,,,,,,,,,,,,,,,,,,,S1,1,2019_Nov_12_1124,test_final,3.1.5,60.01925418
,,,,,,,,,,,,,,,,,,,,,,,,,,,,,,,,4,0,4,0,,,,,,,,,,,,,,,,,,,,,,,,,,,,,,,,,,,,,,,,,,,,,,,,,,,,,,,,,,,,,,,,,,,,,,,,,,,,,,,,,,,,,,,,,,,,,,,,,,,,,,,,,,,,,,,,,,,,,,,,,qzhtrk,"['q', 'z', 'h', 't', 'r', 'k']",0,"[1.333743599941954, 1.682376699987799, 2.0275241000344977, 2.585244599962607, 2.879931299947202, 3.2666668000165373, 4.389831800013781]",477.5966474,None,477.5966474,None,1,QZHTRK,477.5966474,None,,,,,,,S1,1,2019_Nov_12_1124,test_final,3.1.5,60.01925418
Practice,8,(3/3) + 5,6,,,,,,,,,,,,,,,,,,,,,,,,,,,,,5,0,5,0,0,0,0,0,0,0,0,7,,,,,,,,,,,,,,,,,,,,,,,,,,6,,,,,,,,,,,,,,,,,,,,,,,,,,,,,,,,,,,,,,,,,,,,1,,,,,,,,,,,,,,,,,,,,,,,,,,482.558304,None,['6'],0,[2.2887938000494614],482.558304,None,482.558304,None,482.558304,None,484.9363967,None,484.9363967,None,,,,,,,,,,,,,,,,,,,,,S1,1,2019_Nov_12_1124,test_final,3.1.5,60.01925418
,,,,,,,,,,,,,,,,,,,,,,,,,,,,,,,,5,0,5,0,0,0,0,0,,,,,,,,,,,,,,,,,,,,,,,,,,,,,,,,,,,,,,,,,,,,,,,,,,,,,,,,,,,,,,,,,,,,,,,,,,,,,,,,,,,,,,,,,,,,,,,,,,,,,,,,,,,,,,,,,,,486.2878103,None,,,,,,,,,,,,,,,,,,,S1,1,2019_Nov_12_1124,test_final,3.1.5,60.01925418
Practice,14,(6/3) + 4 ,6,,,,,,,,,,,,,,,,,,,,,,,,,,,,,5,0,5,0,1,0,1,0,0,0,0,13,,,,,,,,,,,,,,,,,,,,,,,,,,6,,,,,,,,,,,,,,,,,,,,,,,,,,,,,,,,,,,,,,,,,,,,1,,,,,,,,,,,,,,,,,,,,,,,,,,487.6035375,None,['6'],0,[1.6926430000457913],487.6035375,None,487.6035375,None,487.6035375,None,489.3835006,None,489.3835006,None,,,,,,,,,,,,,,,,,,,,,S1,1,2019_Nov_12_1124,test_final,3.1.5,60.01925418
,,,,,,,,,,,,,,,,,,,,,,,,,,,,,,,,5,0,5,0,1,0,1,0,,,,,,,,,,,,,,,,,,,,,,,,,,,,,,,,,,,,,,,,,,,,,,,,,,,,,,,,,,,,,,,,,,,,,,,,,,,,,,,,,,,,,,,,,,,,,,,,,,,,,,,,,,,,,,,,,,,490.7168615,None,,,,,,,,,,,,,,,,,,,S1,1,2019_Nov_12_1124,test_final,3.1.5,60.01925418
Practice,7,(4x6) - 17,7,,,,,,,,,,,,,,,,,,,,,,,,,,,,,5,0,5,0,2,0,2,0,0,0,0,6,,,,,,,,,,,,,,,,,,,,,,,,,,7,,,,,,,,,,,,,,,,,,,,,,,,,,,,,,,,,,,,,,,,,,,,1,,,,,,,,,,,,,,,,,,,,,,,,,,492.048942,None,['7'],0,[2.5636060999240726],492.048942,None,492.048942,None,492.048942,None,494.6873477,None,494.6873477,None,,,,,,,,,,,,,,,,,,,,,S1,1,2019_Nov_12_1124,test_final,3.1.5,60.01925418
,,,,,,,,,,,,,,,,,,,,,,,,,,,,,,,,5,0,5,0,2,0,2,0,,,,,,,,,,,,,,,,,,,,,,,,,,,,,,,,,,,,,,,,,,,,,,,,,,,,,,,,,,,,,,,,,,,,,,,,,,,,,,,,,,,,,,,,,,,,,,,,,,,,,,,,,,,,,,,,,,,496.0448451,None,,,,,,,,,,,,,,,,,,,S1,1,2019_Nov_12_1124,test_final,3.1.5,60.01925418
Practice,3,(7x2) - 5,9,,,,,,,,,,,,,,,,,,,,,,,,,,,,,5,0,5,0,3,0,3,0,0,0,0,2,,,,,,,,,,,,,,,,,,,,,,,,,,9,,,,,,,,,,,,,,,,,,,,,,,,,,,,,,,,,,,,,,,,,,,,1,,,,,,,,,,,,,,,,,,,,,,,,,,497.3437776,None,['9'],0,[1.8899312000721693],497.3437776,None,497.3437776,None,497.3437776,None,499.3145387,None,499.3145387,None,,,,,,,,,,,,,,,,,,,,,S1,1,2019_Nov_12_1124,test_final,3.1.5,60.01925418
,,,,,,,,,,,,,,,,,,,,,,,,,,,,,,,,5,0,5,0,3,0,3,0,,,,,,,,,,,,,,,,,,,,,,,,,,,,,,,,,,,,,,,,,,,,,,,,,,,,,,,,,,,,,,,,,,,,,,,,,,,,,,,,,,,,,,,,,,,,,,,,,,,,,,,,,,,,,,,,,,,500.6404573,None,,,,,,,,,,,,,,,,,,,S1,1,2019_Nov_12_1124,test_final,3.1.5,60.01925418
Practice,15,(9/3) - 2,1,,,,,,,,,,,,,,,,,,,,,,,,,,,,,5,0,5,0,4,0,4,0,0,0,0,14,,,,,,,,,,,,,,,,,,,,,,,,,,1,,,,,,,,,,,,,,,,,,,,,,,,,,,,,,,,,,,,,,,,,,,,1,,,,,,,,,,,,,,,,,,,,,,,,,,501.9724982,None,['1'],0,[1.9328253000276163],501.9724982,None,501.9724982,None,501.9724982,None,503.9915142,None,503.9915142,None,,,,,,,,,,,,,,,,,,,,,S1,1,2019_Nov_12_1124,test_final,3.1.5,60.01925418
,,,,,,,,,,,,,,,,,,,,,,,,,,,,,,,,5,0,5,0,4,0,4,0,,,,,,,,,,,,,,,,,,,,,,,,,,,,,,,,,,,,,,,,,,,,,,,,,,,,,,,,,,,,,,,,,,,,,,,,,,,,,,,,,,,,,,,,,,,,,,,,,,,,,,,,,,,,,,,,,,,505.3359166,None,,,,,,,,,,,,,,,,,,,S1,1,2019_Nov_12_1124,test_final,3.1.5,60.01925418
Practice,3,(7x2) - 5,9,,,,,,,,,,,,,,,,,,,,,,,,,,,,,5,0,5,0,5,0,5,0,0,0,0,2,,,,,,,,,,,,,,,,,,,,,,,,,,9,,,,,,,,,,,,,,,,,,,,,,,,,,,,,,,,,,,,,,,,,,,,1,,,,,,,,,,,,,,,,,,,,,,,,,,506.6514065,None,['9'],0,[2.023466099984944],506.6514065,None,506.6514065,None,506.6514065,None,508.7555129,None,508.7555129,None,,,,,,,,,,,,,,,,,,,,,S1,1,2019_Nov_12_1124,test_final,3.1.5,60.01925418
,,,,,,,,,,,,,,,,,,,,,,,,,,,,,,,,5,0,5,0,5,0,5,0,,,,,,,,,,,,,,,,,,,,,,,,,,,,,,,,,,,,,,,,,,,,,,,,,,,,,,,,,,,,,,,,,,,,,,,,,,,,,,,,,,,,,,,,,,,,,,,,,,,,,,,,,,,,,,,,,,,510.1148173,None,,,,,,,,,,,,,,,,,,,S1,1,2019_Nov_12_1124,test_final,3.1.5,60.01925418
Practice,11,(5x3) - 7,8,,,,,,,,,,,,,,,,,,,,,,,,,,,,,5,0,5,0,6,0,6,0,0,0,0,10,,,,,,,,,,,,,,,,,,,,,,,,,,8,,,,,,,,,,,,,,,,,,,,,,,,,,,,,,,,,,,,,,,,,,,,1,,,,,,,,,,,,,,,,,,,,,,,,,,511.4133154,None,['8'],0,[3.7005899000214413],511.4133154,None,511.4133154,None,511.4133154,None,515.2028854,None,515.2028854,None,,,,,,,,,,,,,,,,,,,,,S1,1,2019_Nov_12_1124,test_final,3.1.5,60.01925418
,,,,,,,,,,,,,,,,,,,,,,,,,,,,,,,,5,0,5,0,6,0,6,0,,,,,,,,,,,,,,,,,,,,,,,,,,,,,,,,,,,,,,,,,,,,,,,,,,,,,,,,,,,,,,,,,,,,,,,,,,,,,,,,,,,,,,,,,,,,,,,,,,,,,,,,,,,,,,,,,,,516.5409893,None,,,,,,,,,,,,,,,,,,,S1,1,2019_Nov_12_1124,test_final,3.1.5,60.01925418
,,,,,,,,,,,,,,,,,,,,,,,,,,,,,,,,5,0,5,0,,,,,,,,,,,,,,,,,,,,,,,,,,,,,,,,,,,,,,,,,,,,,,,,,,,,,,,,,,,,,,,,,,,,,,,,,,,,,,,,,,,,,,,,,,,,,,,,,,,,,,,,,,,,,,,,,,,,,,,,,hxnktlj,"['h', 'x', 'n', 'k', 't', 'l', 'j']",0,"[1.2287735000718385, 1.758506300044246, 2.1740046000340953, 2.629039100022055, 3.0474826000863686, 3.4040383000392467, 3.7565475000301376, 4.186925300047733]",517.8398329,None,517.8398329,None,1,HXNKTLJ,517.8398329,None,,,,,,,S1,1,2019_Nov_12_1124,test_final,3.1.5,60.01925418
Practice,3,(7x2) - 5,9,,,,,,,,,,,,,,,,,,,,,,,,,,,,,6,0,6,0,0,0,0,0,0,0,0,2,,,,,,,,,,,,,,,,,,,,,,,,,,9,,,,,,,,,,,,,,,,,,,,,,,,,,,,,,,,,,,,,,,,,,,,1,,,,,,,,,,,,,,,,,,,,,,,,,,522.6019009,None,['9'],0,[1.8843061999650672],522.6019009,None,522.6019009,None,522.6019009,None,524.5777382,None,524.5777382,None,,,,,,,,,,,,,,,,,,,,,S1,1,2019_Nov_12_1124,test_final,3.1.5,60.01925418
,,,,,,,,,,,,,,,,,,,,,,,,,,,,,,,,6,0,6,0,0,0,0,0,,,,,,,,,,,,,,,,,,,,,,,,,,,,,,,,,,,,,,,,,,,,,,,,,,,,,,,,,,,,,,,,,,,,,,,,,,,,,,,,,,,,,,,,,,,,,,,,,,,,,,,,,,,,,,,,,,,525.9151857,None,,,,,,,,,,,,,,,,,,,S1,1,2019_Nov_12_1124,test_final,3.1.5,60.01925418
Practice,4,(4x4) - 14,2,,,,,,,,,,,,,,,,,,,,,,,,,,,,,6,0,6,0,1,0,1,0,0,0,0,3,,,,,,,,,,,,,,,,,,,,,,,,,,2,,,,,,,,,,,,,,,,,,,,,,,,,,,,,,,,,,,,,,,,,,,,1,,,,,,,,,,,,,,,,,,,,,,,,,,527.2306147,None,['2'],0,[2.6169191000517458],527.2306147,None,527.2306147,None,527.2306147,None,529.9311472,None,529.9311472,None,,,,,,,,,,,,,,,,,,,,,S1,1,2019_Nov_12_1124,test_final,3.1.5,60.01925418
,,,,,,,,,,,,,,,,,,,,,,,,,,,,,,,,6,0,6,0,1,0,1,0,,,,,,,,,,,,,,,,,,,,,,,,,,,,,,,,,,,,,,,,,,,,,,,,,,,,,,,,,,,,,,,,,,,,,,,,,,,,,,,,,,,,,,,,,,,,,,,,,,,,,,,,,,,,,,,,,,,531.2601033,None,,,,,,,,,,,,,,,,,,,S1,1,2019_Nov_12_1124,test_final,3.1.5,60.01925418
Practice,12,(8/2) + 4,8,,,,,,,,,,,,,,,,,,,,,,,,,,,,,6,0,6,0,2,0,2,0,0,0,0,11,,,,,,,,,,,,,,,,,,,,,,,,,,8,,,,,,,,,,,,,,,,,,,,,,,,,,,,,,,,,,,,,,,,,,,,1,,,,,,,,,,,,,,,,,,,,,,,,,,532.5758232,None,['8'],0,[3.4569461001083255],532.5758232,None,532.5758232,None,532.5758232,None,536.1100019,None,536.1100019,None,,,,,,,,,,,,,,,,,,,,,S1,1,2019_Nov_12_1124,test_final,3.1.5,60.01925418
,,,,,,,,,,,,,,,,,,,,,,,,,,,,,,,,6,0,6,0,2,0,2,0,,,,,,,,,,,,,,,,,,,,,,,,,,,,,,,,,,,,,,,,,,,,,,,,,,,,,,,,,,,,,,,,,,,,,,,,,,,,,,,,,,,,,,,,,,,,,,,,,,,,,,,,,,,,,,,,,,,537.4377429,None,,,,,,,,,,,,,,,,,,,S1,1,2019_Nov_12_1124,test_final,3.1.5,60.01925418
Practice,14,(6/3) + 4 ,6,,,,,,,,,,,,,,,,,,,,,,,,,,,,,6,0,6,0,3,0,3,0,0,0,0,13,,,,,,,,,,,,,,,,,,,,,,,,,,6,,,,,,,,,,,,,,,,,,,,,,,,,,,,,,,,,,,,,,,,,,,,1,,,,,,,,,,,,,,,,,,,,,,,,,,538.7698882,None,['6'],0,[1.5783192000817508],538.7698882,None,538.7698882,None,538.7698882,None,540.4321537,None,540.4321537,None,,,,,,,,,,,,,,,,,,,,,S1,1,2019_Nov_12_1124,test_final,3.1.5,60.01925418
,,,,,,,,,,,,,,,,,,,,,,,,,,,,,,,,6,0,6,0,3,0,3,0,,,,,,,,,,,,,,,,,,,,,,,,,,,,,,,,,,,,,,,,,,,,,,,,,,,,,,,,,,,,,,,,,,,,,,,,,,,,,,,,,,,,,,,,,,,,,,,,,,,,,,,,,,,,,,,,,,,541.7669156,None,,,,,,,,,,,,,,,,,,,S1,1,2019_Nov_12_1124,test_final,3.1.5,60.01925418
Practice,3,(7x2) - 5,9,,,,,,,,,,,,,,,,,,,,,,,,,,,,,6,0,6,0,4,0,4,0,0,0,0,2,,,,,,,,,,,,,,,,,,,,,,,,,,9,,,,,,,,,,,,,,,,,,,,,,,,,,,,,,,,,,,,,,,,,,,,1,,,,,,,,,,,,,,,,,,,,,,,,,,543.0986083,None,['9'],0,[3.611818900099024],543.0986083,None,543.0986083,None,543.0986083,None,546.7904178,None,546.7904178,None,,,,,,,,,,,,,,,,,,,,,S1,1,2019_Nov_12_1124,test_final,3.1.5,60.01925418
,,,,,,,,,,,,,,,,,,,,,,,,,,,,,,,,6,0,6,0,4,0,4,0,,,,,,,,,,,,,,,,,,,,,,,,,,,,,,,,,,,,,,,,,,,,,,,,,,,,,,,,,,,,,,,,,,,,,,,,,,,,,,,,,,,,,,,,,,,,,,,,,,,,,,,,,,,,,,,,,,,548.1439674,None,,,,,,,,,,,,,,,,,,,S1,1,2019_Nov_12_1124,test_final,3.1.5,60.01925418
Practice,8,(3/3) + 5,6,,,,,,,,,,,,,,,,,,,,,,,,,,,,,6,0,6,0,5,0,5,0,0,0,0,7,,,,,,,,,,,,,,,,,,,,,,,,,,6,,,,,,,,,,,,,,,,,,,,,,,,,,,,,,,,,,,,,,,,,,,,1,,,,,,,,,,,,,,,,,,,,,,,,,,549.4596108,None,['6'],0,[2.1053288999246433],549.4596108,None,549.4596108,None,549.4596108,None,551.6565179,None,551.6565179,None,,,,,,,,,,,,,,,,,,,,,S1,1,2019_Nov_12_1124,test_final,3.1.5,60.01925418
,,,,,,,,,,,,,,,,,,,,,,,,,,,,,,,,6,0,6,0,5,0,5,0,,,,,,,,,,,,,,,,,,,,,,,,,,,,,,,,,,,,,,,,,,,,,,,,,,,,,,,,,,,,,,,,,,,,,,,,,,,,,,,,,,,,,,,,,,,,,,,,,,,,,,,,,,,,,,,,,,,553.0053938,None,,,,,,,,,,,,,,,,,,,S1,1,2019_Nov_12_1124,test_final,3.1.5,60.01925418
Practice,13,(3x8) - 19 ,5,,,,,,,,,,,,,,,,,,,,,,,,,,,,,6,0,6,0,6,0,6,0,0,0,0,12,,,,,,,,,,,,,,,,,,,,,,,,,,5,,,,,,,,,,,,,,,,,,,,,,,,,,,,,,,,,,,,,,,,,,,,1,,,,,,,,,,,,,,,,,,,,,,,,,,554.3211624,None,['5'],0,[4.186620999942534],554.3211624,None,554.3211624,None,554.3211624,None,558.6128686,None,558.6128686,None,,,,,,,,,,,,,,,,,,,,,S1,1,2019_Nov_12_1124,test_final,3.1.5,60.01925418
,,,,,,,,,,,,,,,,,,,,,,,,,,,,,,,,6,0,6,0,6,0,6,0,,,,,,,,,,,,,,,,,,,,,,,,,,,,,,,,,,,,,,,,,,,,,,,,,,,,,,,,,,,,,,,,,,,,,,,,,,,,,,,,,,,,,,,,,,,,,,,,,,,,,,,,,,,,,,,,,,,559.965704,None,,,,,,,,,,,,,,,,,,,S1,1,2019_Nov_12_1124,test_final,3.1.5,60.01925418
Practice,9,(4/2) + 5,7,,,,,,,,,,,,,,,,,,,,,,,,,,,,,6,0,6,0,7,0,7,0,0,0,0,8,,,,,,,,,,,,,,,,,,,,,,,,,,7,,,,,,,,,,,,,,,,,,,,,,,,,,,,,,,,,,,,,,,,,,,,1,,,,,,,,,,,,,,,,,,,,,,,,,,561.2809094,None,['7'],0,[2.841625200002454],561.2809094,None,561.2809094,None,561.2809094,None,564.2060359,None,564.2060359,None,,,,,,,,,,,,,,,,,,,,,S1,1,2019_Nov_12_1124,test_final,3.1.5,60.01925418
,,,,,,,,,,,,,,,,,,,,,,,,,,,,,,,,6,0,6,0,7,0,7,0,,,,,,,,,,,,,,,,,,,,,,,,,,,,,,,,,,,,,,,,,,,,,,,,,,,,,,,,,,,,,,,,,,,,,,,,,,,,,,,,,,,,,,,,,,,,,,,,,,,,,,,,,,,,,,,,,,,565.5598516,None,,,,,,,,,,,,,,,,,,,S1,1,2019_Nov_12_1124,test_final,3.1.5,60.01925418
,,,,,,,,,,,,,,,,,,,,,,,,,,,,,,,,6,0,6,0,,,,,,,,,,,,,,,,,,,,,,,,,,,,,,,,,,,,,,,,,,,,,,,,,,,,,,,,,,,,,,,,,,,,,,,,,,,,,,,,,,,,,,,,,,,,,,,,,,,,,,,,,,,,,,,,,,,,,,,,,nqkshjtz,"['n', 'q', 'k', 's', 'h', 'j', 't', 'z']",0,"[1.0802251000422984, 1.5965602999785915, 2.647477600025013, 3.068179600057192, 3.8990891000721604, 4.989774700021371, 5.936560400063172, 6.320321900071576, 6.9286407000618055]",566.8424425,None,566.8424425,None,0,NQKSJHTZ,566.8424425,None,,,,,,,S1,1,2019_Nov_12_1124,test_final,3.1.5,60.01925418
Practice,14,(6/3) + 4 ,6,,,,,,,,,,,,,,,,,,,,,,,,,,,,,7,0,7,0,0,0,0,0,0,0,0,13,,,,,,,,,,,,,,,,,,,,,,,,,,7,,,,,,,,,,,,,,,,,,,,,,,,,,,,,,,,,,,,,,,,,,,,0,,,,,,,,,,,,,,,,,,,,,,,,,,574.3682549,None,['7'],0,[3.973467499949038],574.3682549,None,574.3682549,None,574.3682549,None,578.4395666,None,578.4395666,None,,,,,,,,,,,,,,,,,,,,,S1,1,2019_Nov_12_1124,test_final,3.1.5,60.01925418
Practice,6,(2x6) - 8,4,,,,,,,,,,,,,,,,,,,,,,,,,,,,,7,0,7,0,0,0,0,0,0,1,1,5,,,,,,,,,,,,,,,,,,,,,,,,,,4,,,,,,,,,,,,,,,,,,,,,,,,,,,,,,,,,,,,,,,,,,,,1,,,,,,,,,,,,,,,,,,,,,,,,,,579.7796145,None,['4'],0,[4.013577800011262],579.7796145,None,579.7796145,None,579.7796145,None,583.8594272,None,583.8594272,None,,,,,,,,,,,,,,,,,,,,,S1,1,2019_Nov_12_1124,test_final,3.1.5,60.01925418
,,,,,,,,,,,,,,,,,,,,,,,,,,,,,,,,7,0,7,0,0,0,0,0,,,,,,,,,,,,,,,,,,,,,,,,,,,,,,,,,,,,,,,,,,,,,,,,,,,,,,,,,,,,,,,,,,,,,,,,,,,,,,,,,,,,,,,,,,,,,,,,,,,,,,,,,,,,,,,,,,,585.1742912,None,,,,,,,,,,,,,,,,,,,S1,1,2019_Nov_12_1124,test_final,3.1.5,60.01925418
Practice,4,(4x4) - 14,2,,,,,,,,,,,,,,,,,,,,,,,,,,,,,7,0,7,0,1,0,1,0,0,0,0,3,,,,,,,,,,,,,,,,,,,,,,,,,,2,,,,,,,,,,,,,,,,,,,,,,,,,,,,,,,,,,,,,,,,,,,,1,,,,,,,,,,,,,,,,,,,,,,,,,,586.5064417,None,['2'],0,[1.9477929000277072],586.5064417,None,586.5064417,None,586.5064417,None,588.5412195,None,588.5412195,None,,,,,,,,,,,,,,,,,,,,,S1,1,2019_Nov_12_1124,test_final,3.1.5,60.01925418
,,,,,,,,,,,,,,,,,,,,,,,,,,,,,,,,7,0,7,0,1,0,1,0,,,,,,,,,,,,,,,,,,,,,,,,,,,,,,,,,,,,,,,,,,,,,,,,,,,,,,,,,,,,,,,,,,,,,,,,,,,,,,,,,,,,,,,,,,,,,,,,,,,,,,,,,,,,,,,,,,,589.8696145,None,,,,,,,,,,,,,,,,,,,S1,1,2019_Nov_12_1124,test_final,3.1.5,60.01925418
Practice,15,(9/3) - 2,1,,,,,,,,,,,,,,,,,,,,,,,,,,,,,7,0,7,0,2,0,2,0,0,0,0,14,,,,,,,,,,,,,,,,,,,,,,,,,,1,,,,,,,,,,,,,,,,,,,,,,,,,,,,,,,,,,,,,,,,,,,,1,,,,,,,,,,,,,,,,,,,,,,,,,,591.2017051,None,['1'],0,[1.732184199965559],591.2017051,None,591.2017051,None,591.2017051,None,593.015101,None,593.015101,None,,,,,,,,,,,,,,,,,,,,,S1,1,2019_Nov_12_1124,test_final,3.1.5,60.01925418
,,,,,,,,,,,,,,,,,,,,,,,,,,,,,,,,7,0,7,0,2,0,2,0,,,,,,,,,,,,,,,,,,,,,,,,,,,,,,,,,,,,,,,,,,,,,,,,,,,,,,,,,,,,,,,,,,,,,,,,,,,,,,,,,,,,,,,,,,,,,,,,,,,,,,,,,,,,,,,,,,,594.3486096,None,,,,,,,,,,,,,,,,,,,S1,1,2019_Nov_12_1124,test_final,3.1.5,60.01925418
Practice,3,(7x2) - 5,9,,,,,,,,,,,,,,,,,,,,,,,,,,,,,7,0,7,0,3,0,3,0,0,0,0,2,,,,,,,,,,,,,,,,,,,,,,,,,,9,,,,,,,,,,,,,,,,,,,,,,,,,,,,,,,,,,,,,,,,,,,,1,,,,,,,,,,,,,,,,,,,,,,,,,,595.6807674,None,['9'],0,[2.5941601999802515],595.6807674,None,595.6807674,None,595.6807674,None,598.3696802,None,598.3696802,None,,,,,,,,,,,,,,,,,,,,,S1,1,2019_Nov_12_1124,test_final,3.1.5,60.01925418
,,,,,,,,,,,,,,,,,,,,,,,,,,,,,,,,7,0,7,0,3,0,3,0,,,,,,,,,,,,,,,,,,,,,,,,,,,,,,,,,,,,,,,,,,,,,,,,,,,,,,,,,,,,,,,,,,,,,,,,,,,,,,,,,,,,,,,,,,,,,,,,,,,,,,,,,,,,,,,,,,,599.7099852,None,,,,,,,,,,,,,,,,,,,S1,1,2019_Nov_12_1124,test_final,3.1.5,60.01925418
Practice,11,(5x3) - 7,8,,,,,,,,,,,,,,,,,,,,,,,,,,,,,7,0,7,0,4,0,4,0,0,0,0,10,,,,,,,,,,,,,,,,,,,,,,,,,,8,,,,,,,,,,,,,,,,,,,,,,,,,,,,,,,,,,,,,,,,,,,,1,,,,,,,,,,,,,,,,,,,,,,,,,,601.0251827,None,['8'],0,[2.1552535999799147],601.0251827,None,601.0251827,None,601.0251827,None,603.2922398,None,603.2922398,None,,,,,,,,,,,,,,,,,,,,,S1,1,2019_Nov_12_1124,test_final,3.1.5,60.01925418
,,,,,,,,,,,,,,,,,,,,,,,,,,,,,,,,7,0,7,0,4,0,4,0,,,,,,,,,,,,,,,,,,,,,,,,,,,,,,,,,,,,,,,,,,,,,,,,,,,,,,,,,,,,,,,,,,,,,,,,,,,,,,,,,,,,,,,,,,,,,,,,,,,,,,,,,,,,,,,,,,,604.6215979,None,,,,,,,,,,,,,,,,,,,S1,1,2019_Nov_12_1124,test_final,3.1.5,60.01925418
Practice,6,(2x6) - 8,4,,,,,,,,,,,,,,,,,,,,,,,,,,,,,7,0,7,0,5,0,5,0,0,0,0,5,,,,,,,,,,,,,,,,,,,,,,,,,,4,,,,,,,,,,,,,,,,,,,,,,,,,,,,,,,,,,,,,,,,,,,,1,,,,,,,,,,,,,,,,,,,,,,,,,,605.9872839,None,['4'],0,[4.391717599937692],605.9872839,None,605.9872839,None,605.9872839,None,610.4477249,None,610.4477249,None,,,,,,,,,,,,,,,,,,,,,S1,1,2019_Nov_12_1124,test_final,3.1.5,60.01925418
,,,,,,,,,,,,,,,,,,,,,,,,,,,,,,,,7,0,7,0,5,0,5,0,,,,,,,,,,,,,,,,,,,,,,,,,,,,,,,,,,,,,,,,,,,,,,,,,,,,,,,,,,,,,,,,,,,,,,,,,,,,,,,,,,,,,,,,,,,,,,,,,,,,,,,,,,,,,,,,,,,611.7981621,None,,,,,,,,,,,,,,,,,,,S1,1,2019_Nov_12_1124,test_final,3.1.5,60.01925418
Practice,6,(2x6) - 8,4,,,,,,,,,,,,,,,,,,,,,,,,,,,,,7,0,7,0,6,0,6,0,0,0,0,5,,,,,,,,,,,,,,,,,,,,,,,,,,4,,,,,,,,,,,,,,,,,,,,,,,,,,,,,,,,,,,,,,,,,,,,1,,,,,,,,,,,,,,,,,,,,,,,,,,613.1133838,None,['4'],0,[2.242374400026165],613.1133838,None,613.1133838,None,613.1133838,None,615.4422605,None,615.4422605,None,,,,,,,,,,,,,,,,,,,,,S1,1,2019_Nov_12_1124,test_final,3.1.5,60.01925418
,,,,,,,,,,,,,,,,,,,,,,,,,,,,,,,,7,0,7,0,6,0,6,0,,,,,,,,,,,,,,,,,,,,,,,,,,,,,,,,,,,,,,,,,,,,,,,,,,,,,,,,,,,,,,,,,,,,,,,,,,,,,,,,,,,,,,,,,,,,,,,,,,,,,,,,,,,,,,,,,,,616.7763559,None,,,,,,,,,,,,,,,,,,,S1,1,2019_Nov_12_1124,test_final,3.1.5,60.01925418
Practice,5,(3/3) + 2,3,,,,,,,,,,,,,,,,,,,,,,,,,,,,,7,0,7,0,7,0,7,0,0,0,0,4,,,,,,,,,,,,,,,,,,,,,,,,,,3,,,,,,,,,,,,,,,,,,,,,,,,,,,,,,,,,,,,,,,,,,,,1,,,,,,,,,,,,,,,,,,,,,,,,,,618.092078,None,['3'],0,[1.9091611000476405],618.092078,None,618.092078,None,618.092078,None,620.0876561,None,620.0876561,None,,,,,,,,,,,,,,,,,,,,,S1,1,2019_Nov_12_1124,test_final,3.1.5,60.01925418
,,,,,,,,,,,,,,,,,,,,,,,,,,,,,,,,7,0,7,0,7,0,7,0,,,,,,,,,,,,,,,,,,,,,,,,,,,,,,,,,,,,,,,,,,,,,,,,,,,,,,,,,,,,,,,,,,,,,,,,,,,,,,,,,,,,,,,,,,,,,,,,,,,,,,,,,,,,,,,,,,,621.4384704,None,,,,,,,,,,,,,,,,,,,S1,1,2019_Nov_12_1124,test_final,3.1.5,60.01925418
,,,,,,,,,,,,,,,,,,,,,,,,,,,,,,,,7,0,7,0,,,,,,,,,,,,,,,,,,,,,,,,,,,,,,,,,,,,,,,,,,,,,,,,,,,,,,,,,,,,,,,,,,,,,,,,,,,,,,,,,,,,,,,,,,,,,,,,,,,,,,,,,,,,,,,,,,,,,,,,,qztshrl,"['q', 'z', 't', 's', 'h', 'r', 'l']",0,"[1.5649064000463113, 1.8791491000447422, 2.3817109999945387, 2.9759897000622004, 3.6543849000008777, 4.208308600005694, 4.636535900062881, 5.0282344000879675]",622.7203489,None,622.7203489,None,0,QZTSHRVL,622.7203489,None,,,,,,,S1,1,2019_Nov_12_1124,test_final,3.1.5,60.01925418
,,,,,,,,,,,,,,,,,,,,,,,,,,,,,,,,,,,,,,,,,,,,,,,,,,,,,,,,,,,,,,,,,,,,,,,,,,,,,,,,,,,,,,,,,,,,,,,,,,,,,,,,,,,,,,,,,,,,,,,,,,,,,,,,,,,,,,,,,,,,,,,,,,,,,,,,,,,,,,,,,,,,,,,,628.2990889,None,space,10.8761246,628.2990889,None,S1,1,2019_Nov_12_1124,test_final,3.1.5,60.01925418
