Task,Trial,Problem,Operation_answer,next_level.thisRepN,next_level.thisTrialN,next_level.thisN,next_level.thisIndex,next_letter.thisRepN,next_letter.thisTrialN,next_letter.thisN,next_letter.thisIndex,repeat_practice.thisRepN,repeat_practice.thisTrialN,repeat_practice.thisN,repeat_practice.thisIndex,trials.thisRepN,trials.thisTrialN,trials.thisN,trials.thisIndex,span_recall_prac.thisRepN,span_recall_prac.thisTrialN,span_recall_prac.thisN,span_recall_prac.thisIndex,span_size_prac.thisRepN,span_size_prac.thisTrialN,span_size_prac.thisN,span_size_prac.thisIndex,repeat_if_wrong_prac.thisRepN,repeat_if_wrong_prac.thisTrialN,repeat_if_wrong_prac.thisN,repeat_if_wrong_prac.thisIndex,span_recall.thisRepN,span_recall.thisTrialN,span_recall.thisN,span_recall.thisIndex,span_size.thisRepN,span_size.thisTrialN,span_size.thisN,span_size.thisIndex,repeat_if_wrong.thisRepN,repeat_if_wrong.thisTrialN,repeat_if_wrong.thisN,repeat_if_wrong.thisIndex,instructions_2.started,instructions_2.stopped,key_resp_4.keys,key_resp_4.rt,key_resp_4.started,key_resp_4.stopped,text_2.started,text_2.stopped,simple_recall,key_resp_5.keys,key_resp_5.rt,key_resp_5.started,key_resp_5.stopped,text_feedback.started,text_feedback.stopped,simple_recall_corr,simple_recall_corrkeys,instructions_3.started,instructions_3.stopped,instructions.started,instructions.stopped,key_resp_2.keys,key_resp_2.rt,key_resp_2.started,key_resp_2.stopped,digit_answer,operation.started,operation.stopped,key_resp.keys,key_resp.corr,key_resp.rt,key_resp.started,key_resp.stopped,operation_feedback.started,operation_feedback.stopped,RT_list,instructions_8.started,instructions_8.stopped,feedback_msg.started,feedback_msg.stopped,processing_score,sumRT,meanRT,sumdiff,sd,RT,feedback_msg_2.started,feedback_msg_2.stopped,key_resp_3.keys,key_resp_3.rt,key_resp_3.started,key_resp_3.stopped,instructions_4.started,instructions_4.stopped,key_resp_6.keys,key_resp_6.rt,key_resp_6.started,key_resp_6.stopped,operation_3.started,operation_3.stopped,key_resp_11.keys,key_resp_11.corr,key_resp_11.rt,key_resp_11.started,key_resp_11.stopped,operation_feedback_2.started,operation_feedback_2.stopped,instructions_9.started,instructions_9.stopped,operation_correct,feedback_msg_4.started,feedback_msg_4.stopped,operation_4.started,operation_4.stopped,text_3.started,text_3.stopped,complex_recall_prac,key_resp_9.keys,key_resp_9.corr,key_resp_9.rt,key_resp_9.started,key_resp_9.stopped,text_feedback_3.started,text_feedback_3.stopped,instructions_6.started,instructions_6.stopped,complex_prac_corr,feedback_msg_3.started,feedback_msg_3.stopped,instructions_7.started,instructions_7.stopped,key_resp_10.keys,key_resp_10.rt,key_resp_10.started,key_resp_10.stopped,operation_2.started,operation_2.stopped,key_resp_7.keys,key_resp_7.corr,key_resp_7.rt,key_resp_7.started,key_resp_7.stopped,operation_feedback_3.started,operation_feedback_3.stopped,instructions_10.started,instructions_10.stopped,feedback_msg_5.started,feedback_msg_5.stopped,operation_5.started,operation_5.stopped,text.started,text.stopped,complex_recall,key_resp_8.keys,key_resp_8.corr,key_resp_8.rt,key_resp_8.started,key_resp_8.stopped,text_feedback_2.started,text_feedback_2.stopped,complex_recall_corr,complex_recall_corrkeys,instructions_5.started,instructions_5.stopped,participant,session,date,expName,psychopyVersion,frameRate
,,,,,,,,,,,,,,,,,,,,,,,,,,,,,,,,,,,,,,,,,,,,17.809577,None,space,21.5212747,17.809577,None,,,,,,,,,,,,,,,,,,,,,,,,,,,,,,,,,,,,,,,,,,,,,,,,,,,,,,,,,,,,,,,,,,,,,,,,,,,,,,,,,,,,,,,,,,,,,,,,,,,,,,,,,,,,,,,,,,,,,,,S2,1,2019_Nov_12_1616,test_final,3.1.5,60.17383017
,,,,0,0,0,0,0,0,0,0,,,,,,,,,,,,,,,,,,,,,,,,,,,,,,,,,,,,,,,39.8903163,None,,,,,,,,,,,,,,,,,,,,,,,,,,,,,,,,,,,,,,,,,,,,,,,,,,,,,,,,,,,,,,,,,,,,,,,,,,,,,,,,,,,,,,,,,,,,,,,,,,,,,,,,,,,,,,,,,,,,,S2,1,2019_Nov_12_1616,test_final,3.1.5,60.17383017
,,,,0,0,0,0,1,0,1,0,,,,,,,,,,,,,,,,,,,,,,,,,,,,,,,,,,,,,,,41.1886604,None,,,,,,,,,,,,,,,,,,,,,,,,,,,,,,,,,,,,,,,,,,,,,,,,,,,,,,,,,,,,,,,,,,,,,,,,,,,,,,,,,,,,,,,,,,,,,,,,,,,,,,,,,,,,,,,,,,,,,S2,1,2019_Nov_12_1616,test_final,3.1.5,60.17383017
,,,,1,0,1,0,0,0,0,0,,,,,,,,,,,,,,,,,,,,,,,,,,,,,,,,,,,,,,,46.567109,None,xh,"['x', 'h']","[2.622391000040807, 2.75744419998955, 3.51402679993771]",42.4877085,None,42.4877085,None,1,XH,42.4877085,None,,,,,,,,,,,,,,,,,,,,,,,,,,,,,,,,,,,,,,,,,,,,,,,,,,,,,,,,,,,,,,,,,,,,,,,,,,,,,,,,,,,,,,,,,,,,,,,,,,,,,,,,,,S2,1,2019_Nov_12_1616,test_final,3.1.5,60.17383017
,,,,1,0,1,0,1,0,1,0,,,,,,,,,,,,,,,,,,,,,,,,,,,,,,,,,,,,,,,47.8656165,None,,,,,,,,,,,,,,,,,,,,,,,,,,,,,,,,,,,,,,,,,,,,,,,,,,,,,,,,,,,,,,,,,,,,,,,,,,,,,,,,,,,,,,,,,,,,,,,,,,,,,,,,,,,,,,,,,,,,,S2,1,2019_Nov_12_1616,test_final,3.1.5,60.17383017
,,,,2,0,2,0,0,0,0,0,,,,,,,,,,,,,,,,,,,,,,,,,,,,,,,,,,,,,,,52.1952897,None,jl,"['j', 'l']","[1.1599459999706596, 1.2712953999871388, 2.473905300023034]",49.1649796,None,49.1649796,None,1,JL,49.1649796,None,,,,,,,,,,,,,,,,,,,,,,,,,,,,,,,,,,,,,,,,,,,,,,,,,,,,,,,,,,,,,,,,,,,,,,,,,,,,,,,,,,,,,,,,,,,,,,,,,,,,,,,,,,S2,1,2019_Nov_12_1616,test_final,3.1.5,60.17383017
,,,,2,0,2,0,1,0,1,0,,,,,,,,,,,,,,,,,,,,,,,,,,,,,,,,,,,,,,,53.5101122,None,,,,,,,,,,,,,,,,,,,,,,,,,,,,,,,,,,,,,,,,,,,,,,,,,,,,,,,,,,,,,,,,,,,,,,,,,,,,,,,,,,,,,,,,,,,,,,,,,,,,,,,,,,,,,,,,,,,,,S2,1,2019_Nov_12_1616,test_final,3.1.5,60.17383017
,,,,2,0,2,0,2,0,2,0,,,,,,,,,,,,,,,,,,,,,,,,,,,,,,,,,,,,,,,54.8091708,None,,,,,,,,,,,,,,,,,,,,,,,,,,,,,,,,,,,,,,,,,,,,,,,,,,,,,,,,,,,,,,,,,,,,,,,,,,,,,,,,,,,,,,,,,,,,,,,,,,,,,,,,,,,,,,,,,,,,,S2,1,2019_Nov_12_1616,test_final,3.1.5,60.17383017
,,,,3,0,3,0,0,0,0,0,,,,,,,,,,,,,,,,,,,,,,,,,,,,,,,,,,,,,,,58.1726548,None,sjl,"['s', 'j', 'l']","[0.8357230999972671, 1.0195190999656916, 1.1366906999610364, 1.5048034000210464]",56.1079944,None,56.1079944,None,1,SJL,56.1079944,None,,,,,,,,,,,,,,,,,,,,,,,,,,,,,,,,,,,,,,,,,,,,,,,,,,,,,,,,,,,,,,,,,,,,,,,,,,,,,,,,,,,,,,,,,,,,,,,,,,,,,,,,,,S2,1,2019_Nov_12_1616,test_final,3.1.5,60.17383017
,,,,3,0,3,0,1,0,1,0,,,,,,,,,,,,,,,,,,,,,,,,,,,,,,,,,,,,,,,59.4711592,58.9652697,,,,,,,,,,,,,,,,,,,,,,,,,,,,,,,,,,,,,,,,,,,,,,,,,,,,,,,,,,,,,,,,,,,,,,,,,,,,,,,,,,,,,,,,,,,,,,,,,,,,,,,,,,,,,,,,,,,,,S2,1,2019_Nov_12_1616,test_final,3.1.5,60.17383017
,,,,3,0,3,0,2,0,2,0,,,,,,,,,,,,,,,,,,,,,,,,,,,,,,,,,,,,,,,60.7697369,60.2533835,,,,,,,,,,,,,,,,,,,,,,,,,,,,,,,,,,,,,,,,,,,,,,,,,,,,,,,,,,,,,,,,,,,,,,,,,,,,,,,,,,,,,,,,,,,,,,,,,,,,,,,,,,,,,,,,,,,,,S2,1,2019_Nov_12_1616,test_final,3.1.5,60.17383017
,,,,4,0,4,0,0,0,0,0,,,,,,,,,,,,,,,,,,,,,,,,,,,,,,,,,,,,,,,64.6826862,None,srz,"['s', 'r', 'z']","[1.2745238000061363, 1.354136300040409, 1.5199238000204787, 2.051815400016494]",62.0687611,None,62.0687611,None,1,SRZ,62.0687611,None,,,,,,,,,,,,,,,,,,,,,,,,,,,,,,,,,,,,,,,,,,,,,,,,,,,,,,,,,,,,,,,,,,,,,,,,,,,,,,,,,,,,,,,,,,,,,,,,,,,,,,,,,,S2,1,2019_Nov_12_1616,test_final,3.1.5,60.17383017
,,,,4,0,4,0,1,0,1,0,,,,,,,,,,,,,,,,,,,,,,,,,,,,,,,,,,,,,,,65.9984746,None,,,,,,,,,,,,,,,,,,,,,,,,,,,,,,,,,,,,,,,,,,,,,,,,,,,,,,,,,,,,,,,,,,,,,,,,,,,,,,,,,,,,,,,,,,,,,,,,,,,,,,,,,,,,,,,,,,,,,S2,1,2019_Nov_12_1616,test_final,3.1.5,60.17383017
,,,,4,0,4,0,2,0,2,0,,,,,,,,,,,,,,,,,,,,,,,,,,,,,,,,,,,,,,,67.2967714,None,,,,,,,,,,,,,,,,,,,,,,,,,,,,,,,,,,,,,,,,,,,,,,,,,,,,,,,,,,,,,,,,,,,,,,,,,,,,,,,,,,,,,,,,,,,,,,,,,,,,,,,,,,,,,,,,,,,,,S2,1,2019_Nov_12_1616,test_final,3.1.5,60.17383017
,,,,4,0,4,0,3,0,3,0,,,,,,,,,,,,,,,,,,,,,,,,,,,,,,,,,,,,,,,68.5957393,None,,,,,,,,,,,,,,,,,,,,,,,,,,,,,,,,,,,,,,,,,,,,,,,,,,,,,,,,,,,,,,,,,,,,,,,,,,,,,,,,,,,,,,,,,,,,,,,,,,,,,,,,,,,,,,,,,,,,,S2,1,2019_Nov_12_1616,test_final,3.1.5,60.17383017
,,,,5,0,5,0,0,0,0,0,,,,,,,,,,,,,,,,,,,,,,,,,,,,,,,,,,,,,,,72.3418679,None,xkjt,"['x', 'k', 'j', 't']","[1.0896471999585629, 1.2256982000544667, 1.402687399997376, 1.5968916000565514, 1.8924083999590948]",69.8942588,None,69.8942588,None,1,XKJT,69.8942588,None,,,,,,,,,,,,,,,,,,,,,,,,,,,,,,,,,,,,,,,,,,,,,,,,,,,,,,,,,,,,,,,,,,,,,,,,,,,,,,,,,,,,,,,,,,,,,,,,,,,,,,,,,,S2,1,2019_Nov_12_1616,test_final,3.1.5,60.17383017
,,,,5,0,5,0,1,0,1,0,,,,,,,,,,,,,,,,,,,,,,,,,,,,,,,,,,,,,,,73.6573045,None,,,,,,,,,,,,,,,,,,,,,,,,,,,,,,,,,,,,,,,,,,,,,,,,,,,,,,,,,,,,,,,,,,,,,,,,,,,,,,,,,,,,,,,,,,,,,,,,,,,,,,,,,,,,,,,,,,,,,S2,1,2019_Nov_12_1616,test_final,3.1.5,60.17383017
,,,,5,0,5,0,2,0,2,0,,,,,,,,,,,,,,,,,,,,,,,,,,,,,,,,,,,,,,,74.956087,None,,,,,,,,,,,,,,,,,,,,,,,,,,,,,,,,,,,,,,,,,,,,,,,,,,,,,,,,,,,,,,,,,,,,,,,,,,,,,,,,,,,,,,,,,,,,,,,,,,,,,,,,,,,,,,,,,,,,,S2,1,2019_Nov_12_1616,test_final,3.1.5,60.17383017
,,,,5,0,5,0,3,0,3,0,,,,,,,,,,,,,,,,,,,,,,,,,,,,,,,,,,,,,,,76.254616,None,,,,,,,,,,,,,,,,,,,,,,,,,,,,,,,,,,,,,,,,,,,,,,,,,,,,,,,,,,,,,,,,,,,,,,,,,,,,,,,,,,,,,,,,,,,,,,,,,,,,,,,,,,,,,,,,,,,,,S2,1,2019_Nov_12_1616,test_final,3.1.5,60.17383017
,,,,6,0,6,0,0,0,0,0,,,,,,,,,,,,,,,,,,,,,,,,,,,,,,,,,,,,,,,79.9844016,None,slrk,"['s', 'l', 'r', 'k']","[0.6570157000096515, 0.8494005999527872, 0.9587145999539644, 1.3805468999780715, 1.5387446000240743, 1.6573292999528348, 1.8832508999621496]",77.5535666,None,77.5535666,None,1,SLRK,77.5535666,None,,,,,,,,,,,,,,,,,,,,,,,,,,,,,,,,,,,,,,,,,,,,,,,,,,,,,,,,,,,,,,,,,,,,,,,,,,,,,,,,,,,,,,,,,,,,,,,,,,,,,,,,,,S2,1,2019_Nov_12_1616,test_final,3.1.5,60.17383017
,,,,6,0,6,0,1,0,1,0,,,,,,,,,,,,,,,,,,,,,,,,,,,,,,,,,,,,,,,81.2830455,80.7668318,,,,,,,,,,,,,,,,,,,,,,,,,,,,,,,,,,,,,,,,,,,,,,,,,,,,,,,,,,,,,,,,,,,,,,,,,,,,,,,,,,,,,,,,,,,,,,,,,,,,,,,,,,,,,,,,,,,,,S2,1,2019_Nov_12_1616,test_final,3.1.5,60.17383017
,,,,6,0,6,0,2,0,2,0,,,,,,,,,,,,,,,,,,,,,,,,,,,,,,,,,,,,,,,82.5819738,82.0718217,,,,,,,,,,,,,,,,,,,,,,,,,,,,,,,,,,,,,,,,,,,,,,,,,,,,,,,,,,,,,,,,,,,,,,,,,,,,,,,,,,,,,,,,,,,,,,,,,,,,,,,,,,,,,,,,,,,,,S2,1,2019_Nov_12_1616,test_final,3.1.5,60.17383017
,,,,6,0,6,0,3,0,3,0,,,,,,,,,,,,,,,,,,,,,,,,,,,,,,,,,,,,,,,83.8806938,83.3639916,,,,,,,,,,,,,,,,,,,,,,,,,,,,,,,,,,,,,,,,,,,,,,,,,,,,,,,,,,,,,,,,,,,,,,,,,,,,,,,,,,,,,,,,,,,,,,,,,,,,,,,,,,,,,,,,,,,,,S2,1,2019_Nov_12_1616,test_final,3.1.5,60.17383017
,,,,6,0,6,0,4,0,4,0,,,,,,,,,,,,,,,,,,,,,,,,,,,,,,,,,,,,,,,85.179314,84.663048,,,,,,,,,,,,,,,,,,,,,,,,,,,,,,,,,,,,,,,,,,,,,,,,,,,,,,,,,,,,,,,,,,,,,,,,,,,,,,,,,,,,,,,,,,,,,,,,,,,,,,,,,,,,,,,,,,,,,S2,1,2019_Nov_12_1616,test_final,3.1.5,60.17383017
,,,,7,0,7,0,0,0,0,0,,,,,,,,,,,,,,,,,,,,,,,,,,,,,,,,,,,,,,,88.8423775,None,vsnkh,"['v', 's', 'n', 'k', 'h']","[0.5984388999640942, 0.7555748999584466, 1.168564899940975, 1.314626400009729, 1.4696829000022262, 1.809012099984102]",86.4782433,None,86.4782433,None,1,VSNKH,86.4782433,None,,,,,,,,,,,,,,,,,,,,,,,,,,,,,,,,,,,,,,,,,,,,,,,,,,,,,,,,,,,,,,,,,,,,,,,,,,,,,,,,,,,,,,,,,,,,,,,,,,,,,,,,,,S2,1,2019_Nov_12_1616,test_final,3.1.5,60.17383017
,,,,7,0,7,0,1,0,1,0,,,,,,,,,,,,,,,,,,,,,,,,,,,,,,,,,,,,,,,90.1411586,89.624838,,,,,,,,,,,,,,,,,,,,,,,,,,,,,,,,,,,,,,,,,,,,,,,,,,,,,,,,,,,,,,,,,,,,,,,,,,,,,,,,,,,,,,,,,,,,,,,,,,,,,,,,,,,,,,,,,,,,,S2,1,2019_Nov_12_1616,test_final,3.1.5,60.17383017
,,,,7,0,7,0,2,0,2,0,,,,,,,,,,,,,,,,,,,,,,,,,,,,,,,,,,,,,,,91.4398911,90.9234142,,,,,,,,,,,,,,,,,,,,,,,,,,,,,,,,,,,,,,,,,,,,,,,,,,,,,,,,,,,,,,,,,,,,,,,,,,,,,,,,,,,,,,,,,,,,,,,,,,,,,,,,,,,,,,,,,,,,,S2,1,2019_Nov_12_1616,test_final,3.1.5,60.17383017
,,,,7,0,7,0,3,0,3,0,,,,,,,,,,,,,,,,,,,,,,,,,,,,,,,,,,,,,,,92.7384948,92.2220761,,,,,,,,,,,,,,,,,,,,,,,,,,,,,,,,,,,,,,,,,,,,,,,,,,,,,,,,,,,,,,,,,,,,,,,,,,,,,,,,,,,,,,,,,,,,,,,,,,,,,,,,,,,,,,,,,,,,,S2,1,2019_Nov_12_1616,test_final,3.1.5,60.17383017
,,,,7,0,7,0,4,0,4,0,,,,,,,,,,,,,,,,,,,,,,,,,,,,,,,,,,,,,,,94.0373402,93.521706,,,,,,,,,,,,,,,,,,,,,,,,,,,,,,,,,,,,,,,,,,,,,,,,,,,,,,,,,,,,,,,,,,,,,,,,,,,,,,,,,,,,,,,,,,,,,,,,,,,,,,,,,,,,,,,,,,,,,S2,1,2019_Nov_12_1616,test_final,3.1.5,60.17383017
,,,,8,0,8,0,0,0,0,0,,,,,,,,,,,,,,,,,,,,,,,,,,,,,,,,,,,,,,,101.2803469,None,tzxrn,"['t', 'z', 'x', 'r', 'n']","[1.186893800040707, 1.3577378999907523, 2.2435491000069305, 2.369793700054288, 2.80988499999512, 5.388092100038193]",95.3357871,None,95.3357871,None,1,TZXRN,95.3357871,None,,,,,,,,,,,,,,,,,,,,,,,,,,,,,,,,,,,,,,,,,,,,,,,,,,,,,,,,,,,,,,,,,,,,,,,,,,,,,,,,,,,,,,,,,,,,,,,,,,,,,,,,,,S2,1,2019_Nov_12_1616,test_final,3.1.5,60.17383017
,,,,8,0,8,0,1,0,1,0,,,,,,,,,,,,,,,,,,,,,,,,,,,,,,,,,,,,,,,102.595613,None,,,,,,,,,,,,,,,,,,,,,,,,,,,,,,,,,,,,,,,,,,,,,,,,,,,,,,,,,,,,,,,,,,,,,,,,,,,,,,,,,,,,,,,,,,,,,,,,,,,,,,,,,,,,,,,,,,,,,S2,1,2019_Nov_12_1616,test_final,3.1.5,60.17383017
,,,,8,0,8,0,2,0,2,0,,,,,,,,,,,,,,,,,,,,,,,,,,,,,,,,,,,,,,,103.8940243,None,,,,,,,,,,,,,,,,,,,,,,,,,,,,,,,,,,,,,,,,,,,,,,,,,,,,,,,,,,,,,,,,,,,,,,,,,,,,,,,,,,,,,,,,,,,,,,,,,,,,,,,,,,,,,,,,,,,,,S2,1,2019_Nov_12_1616,test_final,3.1.5,60.17383017
,,,,8,0,8,0,3,0,3,0,,,,,,,,,,,,,,,,,,,,,,,,,,,,,,,,,,,,,,,105.1931171,None,,,,,,,,,,,,,,,,,,,,,,,,,,,,,,,,,,,,,,,,,,,,,,,,,,,,,,,,,,,,,,,,,,,,,,,,,,,,,,,,,,,,,,,,,,,,,,,,,,,,,,,,,,,,,,,,,,,,,S2,1,2019_Nov_12_1616,test_final,3.1.5,60.17383017
,,,,8,0,8,0,4,0,4,0,,,,,,,,,,,,,,,,,,,,,,,,,,,,,,,,,,,,,,,106.4916339,None,,,,,,,,,,,,,,,,,,,,,,,,,,,,,,,,,,,,,,,,,,,,,,,,,,,,,,,,,,,,,,,,,,,,,,,,,,,,,,,,,,,,,,,,,,,,,,,,,,,,,,,,,,,,,,,,,,,,,S2,1,2019_Nov_12_1616,test_final,3.1.5,60.17383017
,,,,8,0,8,0,5,0,5,0,,,,,,,,,,,,,,,,,,,,,,,,,,,,,,,,,,,,,,,107.790548,107.2742323,,,,,,,,,,,,,,,,,,,,,,,,,,,,,,,,,,,,,,,,,,,,,,,,,,,,,,,,,,,,,,,,,,,,,,,,,,,,,,,,,,,,,,,,,,,,,,,,,,,,,,,,,,,,,,,,,,,,,S2,1,2019_Nov_12_1616,test_final,3.1.5,60.17383017
,,,,9,0,9,0,0,0,0,0,,,,,,,,,,,,,,,,,,,,,,,,,,,,,,,,,,,,,,,113.0019099,None,vrqzkt,"['v', 'r', 'q', 'z', 'k', 't']","[1.1832811000058427, 1.3657313000876456, 1.6551181999966502, 1.940998399979435, 2.5956227000569925, 2.8480552000692114, 3.3612032000673935]",109.0892921,None,109.0892921,None,1,VRQZKT,109.0892921,None,,,,,,,,,,,,,,,,,,,,,,,,,,,,,,,,,,,,,,,,,,,,,,,,,,,,,,,,,,,,,,,,,,,,,,,,,,,,,,,,,,,,,,,,,,,,,,,,,,,,,,,,,,S2,1,2019_Nov_12_1616,test_final,3.1.5,60.17383017
,,,,9,0,9,0,1,0,1,0,,,,,,,,,,,,,,,,,,,,,,,,,,,,,,,,,,,,,,,114.3174639,None,,,,,,,,,,,,,,,,,,,,,,,,,,,,,,,,,,,,,,,,,,,,,,,,,,,,,,,,,,,,,,,,,,,,,,,,,,,,,,,,,,,,,,,,,,,,,,,,,,,,,,,,,,,,,,,,,,,,,S2,1,2019_Nov_12_1616,test_final,3.1.5,60.17383017
,,,,9,0,9,0,2,0,2,0,,,,,,,,,,,,,,,,,,,,,,,,,,,,,,,,,,,,,,,115.616047,None,,,,,,,,,,,,,,,,,,,,,,,,,,,,,,,,,,,,,,,,,,,,,,,,,,,,,,,,,,,,,,,,,,,,,,,,,,,,,,,,,,,,,,,,,,,,,,,,,,,,,,,,,,,,,,,,,,,,,S2,1,2019_Nov_12_1616,test_final,3.1.5,60.17383017
,,,,9,0,9,0,3,0,3,0,,,,,,,,,,,,,,,,,,,,,,,,,,,,,,,,,,,,,,,116.9149992,None,,,,,,,,,,,,,,,,,,,,,,,,,,,,,,,,,,,,,,,,,,,,,,,,,,,,,,,,,,,,,,,,,,,,,,,,,,,,,,,,,,,,,,,,,,,,,,,,,,,,,,,,,,,,,,,,,,,,,S2,1,2019_Nov_12_1616,test_final,3.1.5,60.17383017
,,,,9,0,9,0,4,0,4,0,,,,,,,,,,,,,,,,,,,,,,,,,,,,,,,,,,,,,,,118.2134566,None,,,,,,,,,,,,,,,,,,,,,,,,,,,,,,,,,,,,,,,,,,,,,,,,,,,,,,,,,,,,,,,,,,,,,,,,,,,,,,,,,,,,,,,,,,,,,,,,,,,,,,,,,,,,,,,,,,,,,S2,1,2019_Nov_12_1616,test_final,3.1.5,60.17383017
,,,,9,0,9,0,5,0,5,0,,,,,,,,,,,,,,,,,,,,,,,,,,,,,,,,,,,,,,,119.512237,None,,,,,,,,,,,,,,,,,,,,,,,,,,,,,,,,,,,,,,,,,,,,,,,,,,,,,,,,,,,,,,,,,,,,,,,,,,,,,,,,,,,,,,,,,,,,,,,,,,,,,,,,,,,,,,,,,,,,,S2,1,2019_Nov_12_1616,test_final,3.1.5,60.17383017
,,,,10,0,10,0,0,0,0,0,,,,,,,,,,,,,,,,,,,,,,,,,,,,,,,,,,,,,,,132.7327278,None,sjrnvk,"['s', 'j', 'r', 'n', 'v', 'k']","[1.7669157000491396, 2.09757800004445, 3.098521600011736, 3.8048047000775114, 4.39438940002583, 4.825325699988753, 5.079977100016549, 7.060774500016123, 7.239781600073911, 7.396899600047618, 7.557293000048958, 7.896762300049886, 8.456235300051048, 9.001852000015788, 9.362005900009535, 9.772053400054574, 10.097485700040124, 10.541114200023003, 11.372123299981467]",120.8111556,None,120.8111556,None,1,SJRNVK,120.8111556,None,,,,,,,,,,,,,,,,,,,,,,,,,,,,,,,,,,,,,,,,,,,,,,,,,,,,,,,,,,,,,,,,,,,,,,,,,,,,,,,,,,,,,,,,,,,,,,,,,,,,,,,,,,S2,1,2019_Nov_12_1616,test_final,3.1.5,60.17383017
,,,,10,0,10,0,1,0,1,0,,,,,,,,,,,,,,,,,,,,,,,,,,,,,,,,,,,,,,,134.0313892,133.5155633,,,,,,,,,,,,,,,,,,,,,,,,,,,,,,,,,,,,,,,,,,,,,,,,,,,,,,,,,,,,,,,,,,,,,,,,,,,,,,,,,,,,,,,,,,,,,,,,,,,,,,,,,,,,,,,,,,,,,S2,1,2019_Nov_12_1616,test_final,3.1.5,60.17383017
,,,,10,0,10,0,2,0,2,0,,,,,,,,,,,,,,,,,,,,,,,,,,,,,,,,,,,,,,,135.3299598,134.8138351,,,,,,,,,,,,,,,,,,,,,,,,,,,,,,,,,,,,,,,,,,,,,,,,,,,,,,,,,,,,,,,,,,,,,,,,,,,,,,,,,,,,,,,,,,,,,,,,,,,,,,,,,,,,,,,,,,,,,S2,1,2019_Nov_12_1616,test_final,3.1.5,60.17383017
,,,,10,0,10,0,3,0,3,0,,,,,,,,,,,,,,,,,,,,,,,,,,,,,,,,,,,,,,,136.6289223,136.112527,,,,,,,,,,,,,,,,,,,,,,,,,,,,,,,,,,,,,,,,,,,,,,,,,,,,,,,,,,,,,,,,,,,,,,,,,,,,,,,,,,,,,,,,,,,,,,,,,,,,,,,,,,,,,,,,,,,,,S2,1,2019_Nov_12_1616,test_final,3.1.5,60.17383017
,,,,10,0,10,0,4,0,4,0,,,,,,,,,,,,,,,,,,,,,,,,,,,,,,,,,,,,,,,137.9271322,137.4111365,,,,,,,,,,,,,,,,,,,,,,,,,,,,,,,,,,,,,,,,,,,,,,,,,,,,,,,,,,,,,,,,,,,,,,,,,,,,,,,,,,,,,,,,,,,,,,,,,,,,,,,,,,,,,,,,,,,,,S2,1,2019_Nov_12_1616,test_final,3.1.5,60.17383017
,,,,10,0,10,0,5,0,5,0,,,,,,,,,,,,,,,,,,,,,,,,,,,,,,,,,,,,,,,139.2263232,138.7099269,,,,,,,,,,,,,,,,,,,,,,,,,,,,,,,,,,,,,,,,,,,,,,,,,,,,,,,,,,,,,,,,,,,,,,,,,,,,,,,,,,,,,,,,,,,,,,,,,,,,,,,,,,,,,,,,,,,,,S2,1,2019_Nov_12_1616,test_final,3.1.5,60.17383017
,,,,10,0,10,0,6,0,6,0,,,,,,,,,,,,,,,,,,,,,,,,,,,,,,,,,,,,,,,140.5250276,140.0086871,,,,,,,,,,,,,,,,,,,,,,,,,,,,,,,,,,,,,,,,,,,,,,,,,,,,,,,,,,,,,,,,,,,,,,,,,,,,,,,,,,,,,,,,,,,,,,,,,,,,,,,,,,,,,,,,,,,,,S2,1,2019_Nov_12_1616,test_final,3.1.5,60.17383017
,,,,11,0,11,0,0,0,0,0,,,,,,,,,,,,,,,,,,,,,,,,,,,,,,,,,,,,,,,148.3174726,None,vnhqtlz,"['v', 'n', 'h', 'q', 't', 'l', 'z']","[1.6115619000047445, 1.9379401000915095, 2.2974227000959218, 3.8730069000739604, 4.282019900041632, 4.704608700005338, 5.114379800041206, 5.938457200070843]",141.823718,None,141.823718,None,1,VNHQTLZ,141.823718,None,,,,,,,,,,,,,,,,,,,,,,,,,,,,,,,,,,,,,,,,,,,,,,,,,,,,,,,,,,,,,,,,,,,,,,,,,,,,,,,,,,,,,,,,,,,,,,,,,,,,,,,,,,S2,1,2019_Nov_12_1616,test_final,3.1.5,60.17383017
,,,,11,0,11,0,1,0,1,0,,,,,,,,,,,,,,,,,,,,,,,,,,,,,,,,,,,,,,,149.6327373,None,,,,,,,,,,,,,,,,,,,,,,,,,,,,,,,,,,,,,,,,,,,,,,,,,,,,,,,,,,,,,,,,,,,,,,,,,,,,,,,,,,,,,,,,,,,,,,,,,,,,,,,,,,,,,,,,,,,,,S2,1,2019_Nov_12_1616,test_final,3.1.5,60.17383017
,,,,11,0,11,0,2,0,2,0,,,,,,,,,,,,,,,,,,,,,,,,,,,,,,,,,,,,,,,150.9313996,None,,,,,,,,,,,,,,,,,,,,,,,,,,,,,,,,,,,,,,,,,,,,,,,,,,,,,,,,,,,,,,,,,,,,,,,,,,,,,,,,,,,,,,,,,,,,,,,,,,,,,,,,,,,,,,,,,,,,,S2,1,2019_Nov_12_1616,test_final,3.1.5,60.17383017
,,,,11,0,11,0,3,0,3,0,,,,,,,,,,,,,,,,,,,,,,,,,,,,,,,,,,,,,,,152.2300792,None,,,,,,,,,,,,,,,,,,,,,,,,,,,,,,,,,,,,,,,,,,,,,,,,,,,,,,,,,,,,,,,,,,,,,,,,,,,,,,,,,,,,,,,,,,,,,,,,,,,,,,,,,,,,,,,,,,,,,S2,1,2019_Nov_12_1616,test_final,3.1.5,60.17383017
,,,,11,0,11,0,4,0,4,0,,,,,,,,,,,,,,,,,,,,,,,,,,,,,,,,,,,,,,,153.5290386,None,,,,,,,,,,,,,,,,,,,,,,,,,,,,,,,,,,,,,,,,,,,,,,,,,,,,,,,,,,,,,,,,,,,,,,,,,,,,,,,,,,,,,,,,,,,,,,,,,,,,,,,,,,,,,,,,,,,,,S2,1,2019_Nov_12_1616,test_final,3.1.5,60.17383017
,,,,11,0,11,0,5,0,5,0,,,,,,,,,,,,,,,,,,,,,,,,,,,,,,,,,,,,,,,154.8275441,None,,,,,,,,,,,,,,,,,,,,,,,,,,,,,,,,,,,,,,,,,,,,,,,,,,,,,,,,,,,,,,,,,,,,,,,,,,,,,,,,,,,,,,,,,,,,,,,,,,,,,,,,,,,,,,,,,,,,,S2,1,2019_Nov_12_1616,test_final,3.1.5,60.17383017
,,,,11,0,11,0,6,0,6,0,,,,,,,,,,,,,,,,,,,,,,,,,,,,,,,,,,,,,,,156.1263637,None,,,,,,,,,,,,,,,,,,,,,,,,,,,,,,,,,,,,,,,,,,,,,,,,,,,,,,,,,,,,,,,,,,,,,,,,,,,,,,,,,,,,,,,,,,,,,,,,,,,,,,,,,,,,,,,,,,,,,S2,1,2019_Nov_12_1616,test_final,3.1.5,60.17383017
,,,,12,0,12,0,0,0,0,0,,,,,,,,,,,,,,,,,,,,,,,,,,,,,,,,,,,,,,,163.502249,None,khjsvrt,"['k', 'h', 'j', 's', 'v', 'r', 't']","[1.5208920000586659, 1.809386800043285, 2.153410700033419, 2.697115999995731, 4.51370410004165, 4.837086400017142, 5.0032152000349015, 5.520704900030978]",157.4250897,None,157.4250897,None,1,KHJSVRT,157.4250897,None,,,,,,,,,,,,,,,,,,,,,,,,,,,,,,,,,,,,,,,,,,,,,,,,,,,,,,,,,,,,,,,,,,,,,,,,,,,,,,,,,,,,,,,,,,,,,,,,,,,,,,,,,,S2,1,2019_Nov_12_1616,test_final,3.1.5,60.17383017
,,,,12,0,12,0,1,0,1,0,,,,,,,,,,,,,,,,,,,,,,,,,,,,,,,,,,,,,,,164.8011389,164.2855737,,,,,,,,,,,,,,,,,,,,,,,,,,,,,,,,,,,,,,,,,,,,,,,,,,,,,,,,,,,,,,,,,,,,,,,,,,,,,,,,,,,,,,,,,,,,,,,,,,,,,,,,,,,,,,,,,,,,,S2,1,2019_Nov_12_1616,test_final,3.1.5,60.17383017
,,,,12,0,12,0,2,0,2,0,,,,,,,,,,,,,,,,,,,,,,,,,,,,,,,,,,,,,,,166.0999121,165.5834934,,,,,,,,,,,,,,,,,,,,,,,,,,,,,,,,,,,,,,,,,,,,,,,,,,,,,,,,,,,,,,,,,,,,,,,,,,,,,,,,,,,,,,,,,,,,,,,,,,,,,,,,,,,,,,,,,,,,,S2,1,2019_Nov_12_1616,test_final,3.1.5,60.17383017
,,,,12,0,12,0,3,0,3,0,,,,,,,,,,,,,,,,,,,,,,,,,,,,,,,,,,,,,,,167.3985986,166.8822119,,,,,,,,,,,,,,,,,,,,,,,,,,,,,,,,,,,,,,,,,,,,,,,,,,,,,,,,,,,,,,,,,,,,,,,,,,,,,,,,,,,,,,,,,,,,,,,,,,,,,,,,,,,,,,,,,,,,,S2,1,2019_Nov_12_1616,test_final,3.1.5,60.17383017
,,,,12,0,12,0,4,0,4,0,,,,,,,,,,,,,,,,,,,,,,,,,,,,,,,,,,,,,,,168.6969057,168.1823321,,,,,,,,,,,,,,,,,,,,,,,,,,,,,,,,,,,,,,,,,,,,,,,,,,,,,,,,,,,,,,,,,,,,,,,,,,,,,,,,,,,,,,,,,,,,,,,,,,,,,,,,,,,,,,,,,,,,,S2,1,2019_Nov_12_1616,test_final,3.1.5,60.17383017
,,,,12,0,12,0,5,0,5,0,,,,,,,,,,,,,,,,,,,,,,,,,,,,,,,,,,,,,,,169.9962602,169.4798046,,,,,,,,,,,,,,,,,,,,,,,,,,,,,,,,,,,,,,,,,,,,,,,,,,,,,,,,,,,,,,,,,,,,,,,,,,,,,,,,,,,,,,,,,,,,,,,,,,,,,,,,,,,,,,,,,,,,,S2,1,2019_Nov_12_1616,test_final,3.1.5,60.17383017
,,,,12,0,12,0,6,0,6,0,,,,,,,,,,,,,,,,,,,,,,,,,,,,,,,,,,,,,,,171.2947495,170.7784854,,,,,,,,,,,,,,,,,,,,,,,,,,,,,,,,,,,,,,,,,,,,,,,,,,,,,,,,,,,,,,,,,,,,,,,,,,,,,,,,,,,,,,,,,,,,,,,,,,,,,,,,,,,,,,,,,,,,,S2,1,2019_Nov_12_1616,test_final,3.1.5,60.17383017
,,,,12,0,12,0,7,0,7,0,,,,,,,,,,,,,,,,,,,,,,,,,,,,,,,,,,,,,,,172.5936856,172.0773976,,,,,,,,,,,,,,,,,,,,,,,,,,,,,,,,,,,,,,,,,,,,,,,,,,,,,,,,,,,,,,,,,,,,,,,,,,,,,,,,,,,,,,,,,,,,,,,,,,,,,,,,,,,,,,,,,,,,,S2,1,2019_Nov_12_1616,test_final,3.1.5,60.17383017
,,,,13,0,13,0,0,0,0,0,,,,,,,,,,,,,,,,,,,,,,,,,,,,,,,,,,,,,,,188.278236,None,trzqvshz,"['t', 'r', 'z', 'q', 'v', 's', 'h', 'z']","[1.5070077000418678, 1.7127936000470072, 2.1272584999678656, 2.958868799963966, 3.426890700007789, 3.824100699974224, 10.408409100025892, 10.747737400000915, 11.562297999975272, 11.916607600054704, 12.468488799990155, 12.822144499979913, 13.831532799988054]",173.8925685,None,173.8925685,None,0,TRZQVSXH,173.8925685,None,,,,,,,,,,,,,,,,,,,,,,,,,,,,,,,,,,,,,,,,,,,,,,,,,,,,,,,,,,,,,,,,,,,,,,,,,,,,,,,,,,,,,,,,,,,,,,,,,,,,,,,,,,S2,1,2019_Nov_12_1616,test_final,3.1.5,60.17383017
,,,,13,0,13,0,1,0,1,0,,,,,,,,,,,,,,,,,,,,,,,,,,,,,,,,,,,,,,,189.5937526,None,,,,,,,,,,,,,,,,,,,,,,,,,,,,,,,,,,,,,,,,,,,,,,,,,,,,,,,,,,,,,,,,,,,,,,,,,,,,,,,,,,,,,,,,,,,,,,,,,,,,,,,,,,,,,,,,,,,,,S2,1,2019_Nov_12_1616,test_final,3.1.5,60.17383017
,,,,13,0,13,0,2,0,2,0,,,,,,,,,,,,,,,,,,,,,,,,,,,,,,,,,,,,,,,190.8923552,None,,,,,,,,,,,,,,,,,,,,,,,,,,,,,,,,,,,,,,,,,,,,,,,,,,,,,,,,,,,,,,,,,,,,,,,,,,,,,,,,,,,,,,,,,,,,,,,,,,,,,,,,,,,,,,,,,,,,,S2,1,2019_Nov_12_1616,test_final,3.1.5,60.17383017
,,,,13,0,13,0,3,0,3,0,,,,,,,,,,,,,,,,,,,,,,,,,,,,,,,,,,,,,,,192.1912536,None,,,,,,,,,,,,,,,,,,,,,,,,,,,,,,,,,,,,,,,,,,,,,,,,,,,,,,,,,,,,,,,,,,,,,,,,,,,,,,,,,,,,,,,,,,,,,,,,,,,,,,,,,,,,,,,,,,,,,S2,1,2019_Nov_12_1616,test_final,3.1.5,60.17383017
,,,,13,0,13,0,4,0,4,0,,,,,,,,,,,,,,,,,,,,,,,,,,,,,,,,,,,,,,,193.4897889,None,,,,,,,,,,,,,,,,,,,,,,,,,,,,,,,,,,,,,,,,,,,,,,,,,,,,,,,,,,,,,,,,,,,,,,,,,,,,,,,,,,,,,,,,,,,,,,,,,,,,,,,,,,,,,,,,,,,,,S2,1,2019_Nov_12_1616,test_final,3.1.5,60.17383017
,,,,13,0,13,0,5,0,5,0,,,,,,,,,,,,,,,,,,,,,,,,,,,,,,,,,,,,,,,194.7885366,None,,,,,,,,,,,,,,,,,,,,,,,,,,,,,,,,,,,,,,,,,,,,,,,,,,,,,,,,,,,,,,,,,,,,,,,,,,,,,,,,,,,,,,,,,,,,,,,,,,,,,,,,,,,,,,,,,,,,,S2,1,2019_Nov_12_1616,test_final,3.1.5,60.17383017
,,,,13,0,13,0,6,0,6,0,,,,,,,,,,,,,,,,,,,,,,,,,,,,,,,,,,,,,,,196.0871058,None,,,,,,,,,,,,,,,,,,,,,,,,,,,,,,,,,,,,,,,,,,,,,,,,,,,,,,,,,,,,,,,,,,,,,,,,,,,,,,,,,,,,,,,,,,,,,,,,,,,,,,,,,,,,,,,,,,,,,S2,1,2019_Nov_12_1616,test_final,3.1.5,60.17383017
,,,,13,0,13,0,7,0,7,0,,,,,,,,,,,,,,,,,,,,,,,,,,,,,,,,,,,,,,,197.3858872,196.869519,,,,,,,,,,,,,,,,,,,,,,,,,,,,,,,,,,,,,,,,,,,,,,,,,,,,,,,,,,,,,,,,,,,,,,,,,,,,,,,,,,,,,,,,,,,,,,,,,,,,,,,,,,,,,,,,,,,,,S2,1,2019_Nov_12_1616,test_final,3.1.5,60.17383017
,,,,14,0,14,0,0,0,0,0,,,,,,,,,,,,,,,,,,,,,,,,,,,,,,,,,,,,,,,212.1714783,None,nlvkshzx,"['n', 'l', 'v', 'k', 's', 'h', 'z', 'x']","[5.490787899936549, 5.861792799900286, 6.52298869995866, 7.241545400000177, 7.776097599999048, 8.367399299982935, 9.342040499905124, 12.2531214999035, 12.928682999918237]",198.6845861,None,198.6845861,None,1,NLVKSHZX,198.6845861,None,,,,,,,,,,,,,,,,,,,,,,,,,,,,,,,,,,,,,,,,,,,,,,,,,,,,,,,,,,,,,,,,,,,,,,,,,,,,,,,,,,,,,,,,,,,,,,,,,,,,,,,,,,S2,1,2019_Nov_12_1616,test_final,3.1.5,60.17383017
,,,,14,0,14,0,1,0,1,0,,,,,,,,,,,,,,,,,,,,,,,,,,,,,,,,,,,,,,,213.4867569,None,,,,,,,,,,,,,,,,,,,,,,,,,,,,,,,,,,,,,,,,,,,,,,,,,,,,,,,,,,,,,,,,,,,,,,,,,,,,,,,,,,,,,,,,,,,,,,,,,,,,,,,,,,,,,,,,,,,,,S2,1,2019_Nov_12_1616,test_final,3.1.5,60.17383017
,,,,14,0,14,0,2,0,2,0,,,,,,,,,,,,,,,,,,,,,,,,,,,,,,,,,,,,,,,214.7854846,None,,,,,,,,,,,,,,,,,,,,,,,,,,,,,,,,,,,,,,,,,,,,,,,,,,,,,,,,,,,,,,,,,,,,,,,,,,,,,,,,,,,,,,,,,,,,,,,,,,,,,,,,,,,,,,,,,,,,,S2,1,2019_Nov_12_1616,test_final,3.1.5,60.17383017
,,,,14,0,14,0,3,0,3,0,,,,,,,,,,,,,,,,,,,,,,,,,,,,,,,,,,,,,,,216.083943,None,,,,,,,,,,,,,,,,,,,,,,,,,,,,,,,,,,,,,,,,,,,,,,,,,,,,,,,,,,,,,,,,,,,,,,,,,,,,,,,,,,,,,,,,,,,,,,,,,,,,,,,,,,,,,,,,,,,,,S2,1,2019_Nov_12_1616,test_final,3.1.5,60.17383017
,,,,14,0,14,0,4,0,4,0,,,,,,,,,,,,,,,,,,,,,,,,,,,,,,,,,,,,,,,217.3826121,None,,,,,,,,,,,,,,,,,,,,,,,,,,,,,,,,,,,,,,,,,,,,,,,,,,,,,,,,,,,,,,,,,,,,,,,,,,,,,,,,,,,,,,,,,,,,,,,,,,,,,,,,,,,,,,,,,,,,,S2,1,2019_Nov_12_1616,test_final,3.1.5,60.17383017
,,,,14,0,14,0,5,0,5,0,,,,,,,,,,,,,,,,,,,,,,,,,,,,,,,,,,,,,,,218.6817952,None,,,,,,,,,,,,,,,,,,,,,,,,,,,,,,,,,,,,,,,,,,,,,,,,,,,,,,,,,,,,,,,,,,,,,,,,,,,,,,,,,,,,,,,,,,,,,,,,,,,,,,,,,,,,,,,,,,,,,S2,1,2019_Nov_12_1616,test_final,3.1.5,60.17383017
,,,,14,0,14,0,6,0,6,0,,,,,,,,,,,,,,,,,,,,,,,,,,,,,,,,,,,,,,,219.9805467,None,,,,,,,,,,,,,,,,,,,,,,,,,,,,,,,,,,,,,,,,,,,,,,,,,,,,,,,,,,,,,,,,,,,,,,,,,,,,,,,,,,,,,,,,,,,,,,,,,,,,,,,,,,,,,,,,,,,,,S2,1,2019_Nov_12_1616,test_final,3.1.5,60.17383017
,,,,14,0,14,0,7,0,7,0,,,,,,,,,,,,,,,,,,,,,,,,,,,,,,,,,,,,,,,221.2793473,220.7686703,,,,,,,,,,,,,,,,,,,,,,,,,,,,,,,,,,,,,,,,,,,,,,,,,,,,,,,,,,,,,,,,,,,,,,,,,,,,,,,,,,,,,,,,,,,,,,,,,,,,,,,,,,,,,,,,,,,,,S2,1,2019_Nov_12_1616,test_final,3.1.5,60.17383017
,,,,15,0,15,0,0,0,0,0,,,,,,,,,,,,,,,,,,,,,,,,,,,,,,,,,,,,,,,233.300644,None,nlxqjzlt,"['n', 'l', 'x', 'q', 'j', 'z', 'l', 't']","[1.8145873999455944, 1.9569235999369994, 2.38990950002335, 4.4903822999913245, 4.925682800007053, 5.4554869999410585, 8.16675909992773, 8.331243900000118, 10.17147079994902]",222.5780702,None,222.5780702,None,0,NLXQJZRT,222.5780702,None,,,,,,,,,,,,,,,,,,,,,,,,,,,,,,,,,,,,,,,,,,,,,,,,,,,,,,,,,,,,,,,,,,,,,,,,,,,,,,,,,,,,,,,,,,,,,,,,,,,,,,,,,,S2,1,2019_Nov_12_1616,test_final,3.1.5,60.17383017
,,,,15,0,15,0,1,0,1,0,,,,,,,,,,,,,,,,,,,,,,,,,,,,,,,,,,,,,,,234.6159081,None,,,,,,,,,,,,,,,,,,,,,,,,,,,,,,,,,,,,,,,,,,,,,,,,,,,,,,,,,,,,,,,,,,,,,,,,,,,,,,,,,,,,,,,,,,,,,,,,,,,,,,,,,,,,,,,,,,,,,S2,1,2019_Nov_12_1616,test_final,3.1.5,60.17383017
,,,,15,0,15,0,2,0,2,0,,,,,,,,,,,,,,,,,,,,,,,,,,,,,,,,,,,,,,,235.9148614,None,,,,,,,,,,,,,,,,,,,,,,,,,,,,,,,,,,,,,,,,,,,,,,,,,,,,,,,,,,,,,,,,,,,,,,,,,,,,,,,,,,,,,,,,,,,,,,,,,,,,,,,,,,,,,,,,,,,,,S2,1,2019_Nov_12_1616,test_final,3.1.5,60.17383017
,,,,15,0,15,0,3,0,3,0,,,,,,,,,,,,,,,,,,,,,,,,,,,,,,,,,,,,,,,237.2137053,None,,,,,,,,,,,,,,,,,,,,,,,,,,,,,,,,,,,,,,,,,,,,,,,,,,,,,,,,,,,,,,,,,,,,,,,,,,,,,,,,,,,,,,,,,,,,,,,,,,,,,,,,,,,,,,,,,,,,,S2,1,2019_Nov_12_1616,test_final,3.1.5,60.17383017
,,,,15,0,15,0,4,0,4,0,,,,,,,,,,,,,,,,,,,,,,,,,,,,,,,,,,,,,,,238.5122717,None,,,,,,,,,,,,,,,,,,,,,,,,,,,,,,,,,,,,,,,,,,,,,,,,,,,,,,,,,,,,,,,,,,,,,,,,,,,,,,,,,,,,,,,,,,,,,,,,,,,,,,,,,,,,,,,,,,,,,S2,1,2019_Nov_12_1616,test_final,3.1.5,60.17383017
,,,,15,0,15,0,5,0,5,0,,,,,,,,,,,,,,,,,,,,,,,,,,,,,,,,,,,,,,,239.8112662,None,,,,,,,,,,,,,,,,,,,,,,,,,,,,,,,,,,,,,,,,,,,,,,,,,,,,,,,,,,,,,,,,,,,,,,,,,,,,,,,,,,,,,,,,,,,,,,,,,,,,,,,,,,,,,,,,,,,,,S2,1,2019_Nov_12_1616,test_final,3.1.5,60.17383017
,,,,15,0,15,0,6,0,6,0,,,,,,,,,,,,,,,,,,,,,,,,,,,,,,,,,,,,,,,241.1095358,None,,,,,,,,,,,,,,,,,,,,,,,,,,,,,,,,,,,,,,,,,,,,,,,,,,,,,,,,,,,,,,,,,,,,,,,,,,,,,,,,,,,,,,,,,,,,,,,,,,,,,,,,,,,,,,,,,,,,,S2,1,2019_Nov_12_1616,test_final,3.1.5,60.17383017
,,,,15,0,15,0,7,0,7,0,,,,,,,,,,,,,,,,,,,,,,,,,,,,,,,,,,,,,,,242.4083972,241.8920761,,,,,,,,,,,,,,,,,,,,,,,,,,,,,,,,,,,,,,,,,,,,,,,,,,,,,,,,,,,,,,,,,,,,,,,,,,,,,,,,,,,,,,,,,,,,,,,,,,,,,,,,,,,,,,,,,,,,,S2,1,2019_Nov_12_1616,test_final,3.1.5,60.17383017
,,,,16,0,16,0,0,0,0,0,,,,,,,,,,,,,,,,,,,,,,,,,,,,,,,,,,,,,,,250.3005958,None,kzhvxstn,"['k', 'z', 'h', 'v', 'x', 's', 't', 'n']","[1.9553190999431536, 2.431204800028354, 2.964886299916543, 3.519879899919033, 3.8893201999599114, 4.23639059998095, 4.544415600015782, 4.8648762999800965, 6.036241199937649]",243.7072354,None,243.7072354,None,1,KZHVXSTN,243.7072354,None,,,,,,,,,,,,,,,,,,,,,,,,,,,,,,,,,,,,,,,,,,,,,,,,,,,,,,,,,,,,,,,,,,,,,,,,,,,,,,,,,,,,,,,,,,,,,,,,,,,,,,,,,,S2,1,2019_Nov_12_1616,test_final,3.1.5,60.17383017
,,,,16,0,16,0,1,0,1,0,,,,,,,,,,,,,,,,,,,,,,,,,,,,,,,,,,,,,,,251.6161524,None,,,,,,,,,,,,,,,,,,,,,,,,,,,,,,,,,,,,,,,,,,,,,,,,,,,,,,,,,,,,,,,,,,,,,,,,,,,,,,,,,,,,,,,,,,,,,,,,,,,,,,,,,,,,,,,,,,,,,S2,1,2019_Nov_12_1616,test_final,3.1.5,60.17383017
,,,,16,0,16,0,2,0,2,0,,,,,,,,,,,,,,,,,,,,,,,,,,,,,,,,,,,,,,,252.9142492,None,,,,,,,,,,,,,,,,,,,,,,,,,,,,,,,,,,,,,,,,,,,,,,,,,,,,,,,,,,,,,,,,,,,,,,,,,,,,,,,,,,,,,,,,,,,,,,,,,,,,,,,,,,,,,,,,,,,,,S2,1,2019_Nov_12_1616,test_final,3.1.5,60.17383017
,,,,16,0,16,0,3,0,3,0,,,,,,,,,,,,,,,,,,,,,,,,,,,,,,,,,,,,,,,254.2131365,None,,,,,,,,,,,,,,,,,,,,,,,,,,,,,,,,,,,,,,,,,,,,,,,,,,,,,,,,,,,,,,,,,,,,,,,,,,,,,,,,,,,,,,,,,,,,,,,,,,,,,,,,,,,,,,,,,,,,,S2,1,2019_Nov_12_1616,test_final,3.1.5,60.17383017
,,,,16,0,16,0,4,0,4,0,,,,,,,,,,,,,,,,,,,,,,,,,,,,,,,,,,,,,,,255.512284,None,,,,,,,,,,,,,,,,,,,,,,,,,,,,,,,,,,,,,,,,,,,,,,,,,,,,,,,,,,,,,,,,,,,,,,,,,,,,,,,,,,,,,,,,,,,,,,,,,,,,,,,,,,,,,,,,,,,,,S2,1,2019_Nov_12_1616,test_final,3.1.5,60.17383017
,,,,16,0,16,0,5,0,5,0,,,,,,,,,,,,,,,,,,,,,,,,,,,,,,,,,,,,,,,256.8107821,None,,,,,,,,,,,,,,,,,,,,,,,,,,,,,,,,,,,,,,,,,,,,,,,,,,,,,,,,,,,,,,,,,,,,,,,,,,,,,,,,,,,,,,,,,,,,,,,,,,,,,,,,,,,,,,,,,,,,,S2,1,2019_Nov_12_1616,test_final,3.1.5,60.17383017
,,,,16,0,16,0,6,0,6,0,,,,,,,,,,,,,,,,,,,,,,,,,,,,,,,,,,,,,,,258.109585,257.5936445,,,,,,,,,,,,,,,,,,,,,,,,,,,,,,,,,,,,,,,,,,,,,,,,,,,,,,,,,,,,,,,,,,,,,,,,,,,,,,,,,,,,,,,,,,,,,,,,,,,,,,,,,,,,,,,,,,,,,S2,1,2019_Nov_12_1616,test_final,3.1.5,60.17383017
,,,,16,0,16,0,7,0,7,0,,,,,,,,,,,,,,,,,,,,,,,,,,,,,,,,,,,,,,,259.408339,258.8921467,,,,,,,,,,,,,,,,,,,,,,,,,,,,,,,,,,,,,,,,,,,,,,,,,,,,,,,,,,,,,,,,,,,,,,,,,,,,,,,,,,,,,,,,,,,,,,,,,,,,,,,,,,,,,,,,,,,,,S2,1,2019_Nov_12_1616,test_final,3.1.5,60.17383017
,,,,16,0,16,0,8,0,8,0,,,,,,,,,,,,,,,,,,,,,,,,,,,,,,,,,,,,,,,260.7070975,260.1908097,,,,,,,,,,,,,,,,,,,,,,,,,,,,,,,,,,,,,,,,,,,,,,,,,,,,,,,,,,,,,,,,,,,,,,,,,,,,,,,,,,,,,,,,,,,,,,,,,,,,,,,,,,,,,,,,,,,,,S2,1,2019_Nov_12_1616,test_final,3.1.5,60.17383017
,,,,17,0,17,0,0,0,0,0,,,,,,,,,,,,,,,,,,,,,,,,,,,,,,,,,,,,,,,271.5799545,None,rnsjztxqk,"['r', 'n', 's', 'j', 'z', 't', 'x', 'q', 'k']","[2.449913699994795, 2.8347331000259146, 3.347257100045681, 3.937215600046329, 4.542236600071192, 4.966660500038415, 5.4744420000351965, 6.0044689000351354, 6.58154879999347, 8.993553400039673]",262.0060306,None,262.0060306,None,1,RNSJZTXQK,262.0060306,None,,,,,,,,,,,,,,,,,,,,,,,,,,,,,,,,,,,,,,,,,,,,,,,,,,,,,,,,,,,,,,,,,,,,,,,,,,,,,,,,,,,,,,,,,,,,,,,,,,,,,,,,,,S2,1,2019_Nov_12_1616,test_final,3.1.5,60.17383017
,,,,17,0,17,0,1,0,1,0,,,,,,,,,,,,,,,,,,,,,,,,,,,,,,,,,,,,,,,272.8786553,272.3620221,,,,,,,,,,,,,,,,,,,,,,,,,,,,,,,,,,,,,,,,,,,,,,,,,,,,,,,,,,,,,,,,,,,,,,,,,,,,,,,,,,,,,,,,,,,,,,,,,,,,,,,,,,,,,,,,,,,,,S2,1,2019_Nov_12_1616,test_final,3.1.5,60.17383017
,,,,17,0,17,0,2,0,2,0,,,,,,,,,,,,,,,,,,,,,,,,,,,,,,,,,,,,,,,274.1774631,273.6609995,,,,,,,,,,,,,,,,,,,,,,,,,,,,,,,,,,,,,,,,,,,,,,,,,,,,,,,,,,,,,,,,,,,,,,,,,,,,,,,,,,,,,,,,,,,,,,,,,,,,,,,,,,,,,,,,,,,,,S2,1,2019_Nov_12_1616,test_final,3.1.5,60.17383017
,,,,17,0,17,0,3,0,3,0,,,,,,,,,,,,,,,,,,,,,,,,,,,,,,,,,,,,,,,275.4759261,274.9596526,,,,,,,,,,,,,,,,,,,,,,,,,,,,,,,,,,,,,,,,,,,,,,,,,,,,,,,,,,,,,,,,,,,,,,,,,,,,,,,,,,,,,,,,,,,,,,,,,,,,,,,,,,,,,,,,,,,,,S2,1,2019_Nov_12_1616,test_final,3.1.5,60.17383017
,,,,17,0,17,0,4,0,4,0,,,,,,,,,,,,,,,,,,,,,,,,,,,,,,,,,,,,,,,276.774842,276.258172,,,,,,,,,,,,,,,,,,,,,,,,,,,,,,,,,,,,,,,,,,,,,,,,,,,,,,,,,,,,,,,,,,,,,,,,,,,,,,,,,,,,,,,,,,,,,,,,,,,,,,,,,,,,,,,,,,,,,S2,1,2019_Nov_12_1616,test_final,3.1.5,60.17383017
,,,,17,0,17,0,5,0,5,0,,,,,,,,,,,,,,,,,,,,,,,,,,,,,,,,,,,,,,,278.0735088,277.5568392,,,,,,,,,,,,,,,,,,,,,,,,,,,,,,,,,,,,,,,,,,,,,,,,,,,,,,,,,,,,,,,,,,,,,,,,,,,,,,,,,,,,,,,,,,,,,,,,,,,,,,,,,,,,,,,,,,,,,S2,1,2019_Nov_12_1616,test_final,3.1.5,60.17383017
,,,,17,0,17,0,6,0,6,0,,,,,,,,,,,,,,,,,,,,,,,,,,,,,,,,,,,,,,,279.3719119,278.8557289,,,,,,,,,,,,,,,,,,,,,,,,,,,,,,,,,,,,,,,,,,,,,,,,,,,,,,,,,,,,,,,,,,,,,,,,,,,,,,,,,,,,,,,,,,,,,,,,,,,,,,,,,,,,,,,,,,,,,S2,1,2019_Nov_12_1616,test_final,3.1.5,60.17383017
,,,,17,0,17,0,7,0,7,0,,,,,,,,,,,,,,,,,,,,,,,,,,,,,,,,,,,,,,,280.6710273,280.1543547,,,,,,,,,,,,,,,,,,,,,,,,,,,,,,,,,,,,,,,,,,,,,,,,,,,,,,,,,,,,,,,,,,,,,,,,,,,,,,,,,,,,,,,,,,,,,,,,,,,,,,,,,,,,,,,,,,,,,S2,1,2019_Nov_12_1616,test_final,3.1.5,60.17383017
,,,,17,0,17,0,8,0,8,0,,,,,,,,,,,,,,,,,,,,,,,,,,,,,,,,,,,,,,,281.9697333,281.453819,,,,,,,,,,,,,,,,,,,,,,,,,,,,,,,,,,,,,,,,,,,,,,,,,,,,,,,,,,,,,,,,,,,,,,,,,,,,,,,,,,,,,,,,,,,,,,,,,,,,,,,,,,,,,,,,,,,,,S2,1,2019_Nov_12_1616,test_final,3.1.5,60.17383017
,,,,18,0,18,0,0,0,0,0,,,,,,,,,,,,,,,,,,,,,,,,,,,,,,,,,,,,,,,296.4719699,None,qrnhxvszt,"['q', 'r', 'n', 'h', 'x', 'v', 's', 'z', 't']","[2.3073797000106424, 3.1895518000237644, 3.7400811000261456, 4.979393400019035, 5.633858799934387, 6.312508799950592, 7.649108799989335, 9.204785499954596, 9.338141500018537, 12.634293299983256]",283.2681447,None,283.2681447,None,1,QRNHXVSZT,283.2681447,None,,,,,,,,,,,,,,,,,,,,,,,,,,,,,,,,,,,,,,,,,,,,,,,,,,,,,,,,,,,,,,,,,,,,,,,,,,,,,,,,,,,,,,,,,,,,,,,,,,,,,,,,,,S2,1,2019_Nov_12_1616,test_final,3.1.5,60.17383017
,,,,18,0,18,0,1,0,1,0,,,,,,,,,,,,,,,,,,,,,,,,,,,,,,,,,,,,,,,297.7706823,297.2543998,,,,,,,,,,,,,,,,,,,,,,,,,,,,,,,,,,,,,,,,,,,,,,,,,,,,,,,,,,,,,,,,,,,,,,,,,,,,,,,,,,,,,,,,,,,,,,,,,,,,,,,,,,,,,,,,,,,,,S2,1,2019_Nov_12_1616,test_final,3.1.5,60.17383017
,,,,18,0,18,0,2,0,2,0,,,,,,,,,,,,,,,,,,,,,,,,,,,,,,,,,,,,,,,299.0696406,298.5534129,,,,,,,,,,,,,,,,,,,,,,,,,,,,,,,,,,,,,,,,,,,,,,,,,,,,,,,,,,,,,,,,,,,,,,,,,,,,,,,,,,,,,,,,,,,,,,,,,,,,,,,,,,,,,,,,,,,,,S2,1,2019_Nov_12_1616,test_final,3.1.5,60.17383017
,,,,18,0,18,0,3,0,3,0,,,,,,,,,,,,,,,,,,,,,,,,,,,,,,,,,,,,,,,300.3685068,299.8518812,,,,,,,,,,,,,,,,,,,,,,,,,,,,,,,,,,,,,,,,,,,,,,,,,,,,,,,,,,,,,,,,,,,,,,,,,,,,,,,,,,,,,,,,,,,,,,,,,,,,,,,,,,,,,,,,,,,,,S2,1,2019_Nov_12_1616,test_final,3.1.5,60.17383017
,,,,18,0,18,0,4,0,4,0,,,,,,,,,,,,,,,,,,,,,,,,,,,,,,,,,,,,,,,301.6664529,301.1505558,,,,,,,,,,,,,,,,,,,,,,,,,,,,,,,,,,,,,,,,,,,,,,,,,,,,,,,,,,,,,,,,,,,,,,,,,,,,,,,,,,,,,,,,,,,,,,,,,,,,,,,,,,,,,,,,,,,,,S2,1,2019_Nov_12_1616,test_final,3.1.5,60.17383017
,,,,18,0,18,0,5,0,5,0,,,,,,,,,,,,,,,,,,,,,,,,,,,,,,,,,,,,,,,302.9657515,302.4496494,,,,,,,,,,,,,,,,,,,,,,,,,,,,,,,,,,,,,,,,,,,,,,,,,,,,,,,,,,,,,,,,,,,,,,,,,,,,,,,,,,,,,,,,,,,,,,,,,,,,,,,,,,,,,,,,,,,,,S2,1,2019_Nov_12_1616,test_final,3.1.5,60.17383017
,,,,18,0,18,0,6,0,6,0,,,,,,,,,,,,,,,,,,,,,,,,,,,,,,,,,,,,,,,304.2645284,303.7481372,,,,,,,,,,,,,,,,,,,,,,,,,,,,,,,,,,,,,,,,,,,,,,,,,,,,,,,,,,,,,,,,,,,,,,,,,,,,,,,,,,,,,,,,,,,,,,,,,,,,,,,,,,,,,,,,,,,,,S2,1,2019_Nov_12_1616,test_final,3.1.5,60.17383017
,,,,18,0,18,0,7,0,7,0,,,,,,,,,,,,,,,,,,,,,,,,,,,,,,,,,,,,,,,305.5631108,305.0467193,,,,,,,,,,,,,,,,,,,,,,,,,,,,,,,,,,,,,,,,,,,,,,,,,,,,,,,,,,,,,,,,,,,,,,,,,,,,,,,,,,,,,,,,,,,,,,,,,,,,,,,,,,,,,,,,,,,,,S2,1,2019_Nov_12_1616,test_final,3.1.5,60.17383017
,,,,18,0,18,0,8,0,8,0,,,,,,,,,,,,,,,,,,,,,,,,,,,,,,,,,,,,,,,306.8617626,306.3455605,,,,,,,,,,,,,,,,,,,,,,,,,,,,,,,,,,,,,,,,,,,,,,,,,,,,,,,,,,,,,,,,,,,,,,,,,,,,,,,,,,,,,,,,,,,,,,,,,,,,,,,,,,,,,,,,,,,,,S2,1,2019_Nov_12_1616,test_final,3.1.5,60.17383017
,,,,18,0,18,0,9,0,9,0,,,,,,,,,,,,,,,,,,,,,,,,,,,,,,,,,,,,,,,308.16054,307.6443706,,,,,,,,,,,,,,,,,,,,,,,,,,,,,,,,,,,,,,,,,,,,,,,,,,,,,,,,,,,,,,,,,,,,,,,,,,,,,,,,,,,,,,,,,,,,,,,,,,,,,,,,,,,,,,,,,,,,,S2,1,2019_Nov_12_1616,test_final,3.1.5,60.17383017
,,,,19,0,19,0,0,0,0,0,,,,,,,,,,,,,,,,,,,,,,,,,,,,,,,,,,,,,,,324.5943515,None,lkqnxlzts,"['l', 'k', 'q', 'n', 'x', 'l', 'z', 't', 's']","[3.610787299927324, 3.704408699995838, 4.357203999999911, 6.433472999953665, 9.992188700009137, 10.637676700018346, 11.170407199999318, 11.640660299919546, 12.797152500017546, 14.585467499913648]",309.4593043,None,309.4593043,None,0,LKQNSRTXZV,309.4593043,None,,,,,,,,,,,,,,,,,,,,,,,,,,,,,,,,,,,,,,,,,,,,,,,,,,,,,,,,,,,,,,,,,,,,,,,,,,,,,,,,,,,,,,,,,,,,,,,,,,,,,,,,,,S2,1,2019_Nov_12_1616,test_final,3.1.5,60.17383017
,,,,19,0,19,0,1,0,1,0,,,,,,,,,,,,,,,,,,,,,,,,,,,,,,,,,,,,,,,325.9100478,None,,,,,,,,,,,,,,,,,,,,,,,,,,,,,,,,,,,,,,,,,,,,,,,,,,,,,,,,,,,,,,,,,,,,,,,,,,,,,,,,,,,,,,,,,,,,,,,,,,,,,,,,,,,,,,,,,,,,,S2,1,2019_Nov_12_1616,test_final,3.1.5,60.17383017
,,,,19,0,19,0,2,0,2,0,,,,,,,,,,,,,,,,,,,,,,,,,,,,,,,,,,,,,,,327.20844,None,,,,,,,,,,,,,,,,,,,,,,,,,,,,,,,,,,,,,,,,,,,,,,,,,,,,,,,,,,,,,,,,,,,,,,,,,,,,,,,,,,,,,,,,,,,,,,,,,,,,,,,,,,,,,,,,,,,,,S2,1,2019_Nov_12_1616,test_final,3.1.5,60.17383017
,,,,19,0,19,0,3,0,3,0,,,,,,,,,,,,,,,,,,,,,,,,,,,,,,,,,,,,,,,328.5074304,None,,,,,,,,,,,,,,,,,,,,,,,,,,,,,,,,,,,,,,,,,,,,,,,,,,,,,,,,,,,,,,,,,,,,,,,,,,,,,,,,,,,,,,,,,,,,,,,,,,,,,,,,,,,,,,,,,,,,,S2,1,2019_Nov_12_1616,test_final,3.1.5,60.17383017
,,,,19,0,19,0,4,0,4,0,,,,,,,,,,,,,,,,,,,,,,,,,,,,,,,,,,,,,,,329.8058795,329.293401,,,,,,,,,,,,,,,,,,,,,,,,,,,,,,,,,,,,,,,,,,,,,,,,,,,,,,,,,,,,,,,,,,,,,,,,,,,,,,,,,,,,,,,,,,,,,,,,,,,,,,,,,,,,,,,,,,,,,S2,1,2019_Nov_12_1616,test_final,3.1.5,60.17383017
,,,,19,0,19,0,5,0,5,0,,,,,,,,,,,,,,,,,,,,,,,,,,,,,,,,,,,,,,,331.1042537,330.5885316,,,,,,,,,,,,,,,,,,,,,,,,,,,,,,,,,,,,,,,,,,,,,,,,,,,,,,,,,,,,,,,,,,,,,,,,,,,,,,,,,,,,,,,,,,,,,,,,,,,,,,,,,,,,,,,,,,,,,S2,1,2019_Nov_12_1616,test_final,3.1.5,60.17383017
,,,,19,0,19,0,6,0,6,0,,,,,,,,,,,,,,,,,,,,,,,,,,,,,,,,,,,,,,,332.4033968,331.8871417,,,,,,,,,,,,,,,,,,,,,,,,,,,,,,,,,,,,,,,,,,,,,,,,,,,,,,,,,,,,,,,,,,,,,,,,,,,,,,,,,,,,,,,,,,,,,,,,,,,,,,,,,,,,,,,,,,,,,S2,1,2019_Nov_12_1616,test_final,3.1.5,60.17383017
,,,,19,0,19,0,7,0,7,0,,,,,,,,,,,,,,,,,,,,,,,,,,,,,,,,,,,,,,,333.7022762,333.1859051,,,,,,,,,,,,,,,,,,,,,,,,,,,,,,,,,,,,,,,,,,,,,,,,,,,,,,,,,,,,,,,,,,,,,,,,,,,,,,,,,,,,,,,,,,,,,,,,,,,,,,,,,,,,,,,,,,,,,S2,1,2019_Nov_12_1616,test_final,3.1.5,60.17383017
,,,,19,0,19,0,8,0,8,0,,,,,,,,,,,,,,,,,,,,,,,,,,,,,,,,,,,,,,,335.0010795,334.4844348,,,,,,,,,,,,,,,,,,,,,,,,,,,,,,,,,,,,,,,,,,,,,,,,,,,,,,,,,,,,,,,,,,,,,,,,,,,,,,,,,,,,,,,,,,,,,,,,,,,,,,,,,,,,,,,,,,,,,S2,1,2019_Nov_12_1616,test_final,3.1.5,60.17383017
,,,,19,0,19,0,9,0,9,0,,,,,,,,,,,,,,,,,,,,,,,,,,,,,,,,,,,,,,,336.2995389,335.783521,,,,,,,,,,,,,,,,,,,,,,,,,,,,,,,,,,,,,,,,,,,,,,,,,,,,,,,,,,,,,,,,,,,,,,,,,,,,,,,,,,,,,,,,,,,,,,,,,,,,,,,,,,,,,,,,,,,,,S2,1,2019_Nov_12_1616,test_final,3.1.5,60.17383017
,,,,20,0,20,0,0,0,0,0,,,,,,,,,,,,,,,,,,,,,,,,,,,,,,,,,,,,,,,351.8511612,None,ntlrqxts,"['n', 't', 'l', 'r', 'q', 'x', 't', 's']","[2.9462595999939367, 3.8296663999790326, 4.2236006000312045, 5.937926699989475, 7.358173800050281, 7.923639300046489, 12.449000000022352, 12.689324900042266, 13.67691909999121]",337.5982376,None,337.5982376,None,0,NTRLHJKQXS,337.5982376,None,,,,,,,,,,,,,,,,,,,,,,,,,,,,,,,,,,,,,,,,,,,,,,,,,,,,,,,,,,,,,,,,,,,,,,,,,,,,,,,,,,,,,,,,,,,,,,,,,,,,,,,,,,S2,1,2019_Nov_12_1616,test_final,3.1.5,60.17383017
,,,,20,0,20,0,1,0,1,0,,,,,,,,,,,,,,,,,,,,,,,,,,,,,,,,,,,,,,,353.1497751,352.633421,,,,,,,,,,,,,,,,,,,,,,,,,,,,,,,,,,,,,,,,,,,,,,,,,,,,,,,,,,,,,,,,,,,,,,,,,,,,,,,,,,,,,,,,,,,,,,,,,,,,,,,,,,,,,,,,,,,,,S2,1,2019_Nov_12_1616,test_final,3.1.5,60.17383017
,,,,20,0,20,0,2,0,2,0,,,,,,,,,,,,,,,,,,,,,,,,,,,,,,,,,,,,,,,354.4483039,353.9318883,,,,,,,,,,,,,,,,,,,,,,,,,,,,,,,,,,,,,,,,,,,,,,,,,,,,,,,,,,,,,,,,,,,,,,,,,,,,,,,,,,,,,,,,,,,,,,,,,,,,,,,,,,,,,,,,,,,,,S2,1,2019_Nov_12_1616,test_final,3.1.5,60.17383017
,,,,20,0,20,0,3,0,3,0,,,,,,,,,,,,,,,,,,,,,,,,,,,,,,,,,,,,,,,355.7473385,355.2309543,,,,,,,,,,,,,,,,,,,,,,,,,,,,,,,,,,,,,,,,,,,,,,,,,,,,,,,,,,,,,,,,,,,,,,,,,,,,,,,,,,,,,,,,,,,,,,,,,,,,,,,,,,,,,,,,,,,,,S2,1,2019_Nov_12_1616,test_final,3.1.5,60.17383017
,,,,20,0,20,0,4,0,4,0,,,,,,,,,,,,,,,,,,,,,,,,,,,,,,,,,,,,,,,357.0460805,356.5295092,,,,,,,,,,,,,,,,,,,,,,,,,,,,,,,,,,,,,,,,,,,,,,,,,,,,,,,,,,,,,,,,,,,,,,,,,,,,,,,,,,,,,,,,,,,,,,,,,,,,,,,,,,,,,,,,,,,,,S2,1,2019_Nov_12_1616,test_final,3.1.5,60.17383017
,,,,20,0,20,0,5,0,5,0,,,,,,,,,,,,,,,,,,,,,,,,,,,,,,,,,,,,,,,358.3446959,357.828405,,,,,,,,,,,,,,,,,,,,,,,,,,,,,,,,,,,,,,,,,,,,,,,,,,,,,,,,,,,,,,,,,,,,,,,,,,,,,,,,,,,,,,,,,,,,,,,,,,,,,,,,,,,,,,,,,,,,,S2,1,2019_Nov_12_1616,test_final,3.1.5,60.17383017
,,,,20,0,20,0,6,0,6,0,,,,,,,,,,,,,,,,,,,,,,,,,,,,,,,,,,,,,,,359.6432848,359.1271531,,,,,,,,,,,,,,,,,,,,,,,,,,,,,,,,,,,,,,,,,,,,,,,,,,,,,,,,,,,,,,,,,,,,,,,,,,,,,,,,,,,,,,,,,,,,,,,,,,,,,,,,,,,,,,,,,,,,,S2,1,2019_Nov_12_1616,test_final,3.1.5,60.17383017
,,,,20,0,20,0,7,0,7,0,,,,,,,,,,,,,,,,,,,,,,,,,,,,,,,,,,,,,,,360.9418871,360.4257175,,,,,,,,,,,,,,,,,,,,,,,,,,,,,,,,,,,,,,,,,,,,,,,,,,,,,,,,,,,,,,,,,,,,,,,,,,,,,,,,,,,,,,,,,,,,,,,,,,,,,,,,,,,,,,,,,,,,,S2,1,2019_Nov_12_1616,test_final,3.1.5,60.17383017
,,,,20,0,20,0,8,0,8,0,,,,,,,,,,,,,,,,,,,,,,,,,,,,,,,,,,,,,,,362.2409802,361.7244618,,,,,,,,,,,,,,,,,,,,,,,,,,,,,,,,,,,,,,,,,,,,,,,,,,,,,,,,,,,,,,,,,,,,,,,,,,,,,,,,,,,,,,,,,,,,,,,,,,,,,,,,,,,,,,,,,,,,,S2,1,2019_Nov_12_1616,test_final,3.1.5,60.17383017
,,,,20,0,20,0,9,0,9,0,,,,,,,,,,,,,,,,,,,,,,,,,,,,,,,,,,,,,,,363.5397891,363.0230804,,,,,,,,,,,,,,,,,,,,,,,,,,,,,,,,,,,,,,,,,,,,,,,,,,,,,,,,,,,,,,,,,,,,,,,,,,,,,,,,,,,,,,,,,,,,,,,,,,,,,,,,,,,,,,,,,,,,,S2,1,2019_Nov_12_1616,test_final,3.1.5,60.17383017
,,,,,,,,,,,,,,,,,,,,,,,,,,,,,,,,,,,,,,,,,,,,,,,,,,,,zqrnklhxvn,"['z', 'q', 'r', 'n', 'k', 'l', 'h', 'x', 'v', 'n']","[2.31675640004687, 2.4590985000832006, 3.1805936000309885, 3.5427240000572056, 5.31398109998554, 5.408597800065763, 7.788493600091897, 8.172076900023967, 8.922760599991307, 9.0759913000511, 11.227207700023428]",364.8385141,None,364.8385141,None,0,ZQRSKLHXVN,364.8385141,None,376.6270082,None,space,7.1651094,376.6270082,None,,,,,,,,,,,,,,,,,,,,,,,,,,,,,,,,,,,,,,,,,,,,,,,,,,,,,,,,,,,,,,,,,,,,,,,,,,,,,,,,,,,,,,,,,,,,,,,,,,,,S2,1,2019_Nov_12_1616,test_final,3.1.5,60.17383017
Practice,13,(3x8) - 19 ,5,,,,,,,,,0,0,0,0,0,0,0,12,,,,,,,,,,,,,,,,,,,,,,,,,,,,,,,,,,,,,,,,,,,,,,,,,,5,384.4523848,None,['5'],0,[3.994151800055988],384.4523848,None,384.4523848,None,[3.994151800055988],384.4523848,None,388.9814215,None,,,,,,,,,,,,,,,,,,,,,,,,,,,,,,,,,,,,,,,,,,,,,,,,,,,,,,,,,,,,,,,,,,,,,,,,,,,,,,,,,,,,,S2,1,2019_Nov_12_1616,test_final,3.1.5,60.17383017
Practice,2,(1/1) - 1,0,,,,,,,,,0,0,0,0,0,1,1,1,,,,,,,,,,,,,,,,,,,,,,,,,,,,,,,,,,,,,,,,,,,,,,,,,,0,390.4800108,None,['0'],0,[1.8043714000377804],390.4800108,None,390.4800108,None,"[3.994151800055988, 1.8043714000377804]",390.4800108,None,392.8278076,None,,,,,,,,,,,,,,,,,,,,,,,,,,,,,,,,,,,,,,,,,,,,,,,,,,,,,,,,,,,,,,,,,,,,,,,,,,,,,,,,,,,,,S2,1,2019_Nov_12_1616,test_final,3.1.5,60.17383017
Practice,7,(4x6) - 17,7,,,,,,,,,0,0,0,0,0,2,2,6,,,,,,,,,,,,,,,,,,,,,,,,,,,,,,,,,,,,,,,,,,,,,,,,,,7,394.3262182,None,['7'],0,[2.3673375999787822],394.3262182,None,394.3262182,None,"[3.994151800055988, 1.8043714000377804, 2.3673375999787822]",394.3262182,None,397.2400224,None,,,,,,,,,,,,,,,,,,,,,,,,,,,,,,,,,,,,,,,,,,,,,,,,,,,,,,,,,,,,,,,,,,,,,,,,,,,,,,,,,,,,,S2,1,2019_Nov_12_1616,test_final,3.1.5,60.17383017
Practice,8,(3/3) + 5,6,,,,,,,,,0,0,0,0,0,3,3,7,,,,,,,,,,,,,,,,,,,,,,,,,,,,,,,,,,,,,,,,,,,,,,,,,,6,398.7385101,None,['6'],0,[1.8942016999935731],398.7385101,None,398.7385101,None,"[3.994151800055988, 1.8043714000377804, 2.3673375999787822, 1.8942016999935731]",398.7385101,None,401.1694118,None,,,,,,,,,,,,,,,,,,,,,,,,,,,,,,,,,,,,,,,,,,,,,,,,,,,,,,,,,,,,,,,,,,,,,,,,,,,,,,,,,,,,,S2,1,2019_Nov_12_1616,test_final,3.1.5,60.17383017
Practice,4,(4x4) - 14,2,,,,,,,,,0,0,0,0,0,4,4,3,,,,,,,,,,,,,,,,,,,,,,,,,,,,,,,,,,,,,,,,,,,,,,,,,,2,402.6681548,None,['2'],0,[1.998997600050643],402.6681548,None,402.6681548,None,"[3.994151800055988, 1.8043714000377804, 2.3673375999787822, 1.8942016999935731, 1.998997600050643]",402.6681548,None,405.1989423,None,,,,,,,,,,,,,,,,,,,,,,,,,,,,,,,,,,,,,,,,,,,,,,,,,,,,,,,,,,,,,,,,,,,,,,,,,,,,,,,,,,,,,S2,1,2019_Nov_12_1616,test_final,3.1.5,60.17383017
Practice,3,(7x2) - 5,9,,,,,,,,,0,0,0,0,0,5,5,2,,,,,,,,,,,,,,,,,,,,,,,,,,,,,,,,,,,,,,,,,,,,,,,,,,9,406.6974291,None,['9'],0,[1.6826831999933347],406.6974291,None,406.6974291,None,"[3.994151800055988, 1.8043714000377804, 2.3673375999787822, 1.8942016999935731, 1.998997600050643, 1.6826831999933347]",406.6974291,None,408.9119853,None,,,,,,,,,,,,,,,,,,,,,,,,,,,,,,,,,,,,,,,,,,,,,,,,,,,,,,,,,,,,,,,,,,,,,,,,,,,,,,,,,,,,,S2,1,2019_Nov_12_1616,test_final,3.1.5,60.17383017
Practice,9,(4/2) + 5,7,,,,,,,,,0,0,0,0,0,6,6,8,,,,,,,,,,,,,,,,,,,,,,,,,,,,,,,,,,,,,,,,,,,,,,,,,,1,410.4104643,None,['1'],0,[1.779987100046128],410.4104643,None,410.4104643,None,"[3.994151800055988, 1.8043714000377804, 2.3673375999787822, 1.8942016999935731, 1.998997600050643, 1.6826831999933347, 1.779987100046128]",410.4104643,None,412.7248075,None,,,,,,,,,,,,,,,,,,,,,,,,,,,,,,,,,,,,,,,,,,,,,,,,,,,,,,,,,,,,,,,,,,,,,,,,,,,,,,,,,,,,,S2,1,2019_Nov_12_1616,test_final,3.1.5,60.17383017
Practice,10,(8/4) + 3,5,,,,,,,,,0,0,0,0,0,7,7,9,,,,,,,,,,,,,,,,,,,,,,,,,,,,,,,,,,,,,,,,,,,,,,,,,,5,414.2232798,None,['5'],0,[2.5859877000330016],414.2232798,None,414.2232798,None,"[3.994151800055988, 1.8043714000377804, 2.3673375999787822, 1.8942016999935731, 1.998997600050643, 1.6826831999933347, 1.779987100046128, 2.5859877000330016]",414.2232798,None,417.3530743,None,,,,,,,,,,,,,,,,,,,,,,,,,,,,,,,,,,,,,,,,,,,,,,,,,,,,,,,,,,,,,,,,,,,,,,,,,,,,,,,,,,,,,S2,1,2019_Nov_12_1616,test_final,3.1.5,60.17383017
Practice,6,(2x6) - 8,4,,,,,,,,,0,0,0,0,0,8,8,5,,,,,,,,,,,,,,,,,,,,,,,,,,,,,,,,,,,,,,,,,,,,,,,,,,4,418.8521528,None,['4'],0,[1.6052820000331849],418.8521528,None,418.8521528,None,"[3.994151800055988, 1.8043714000377804, 2.3673375999787822, 1.8942016999935731, 1.998997600050643, 1.6826831999933347, 1.779987100046128, 2.5859877000330016, 1.6052820000331849]",418.8521528,None,421.000004,None,,,,,,,,,,,,,,,,,,,,,,,,,,,,,,,,,,,,,,,,,,,,,,,,,,,,,,,,,,,,,,,,,,,,,,,,,,,,,,,,,,,,,S2,1,2019_Nov_12_1616,test_final,3.1.5,60.17383017
Practice,1,(1x2) + 1,3,,,,,,,,,0,0,0,0,0,9,9,0,,,,,,,,,,,,,,,,,,,,,,,,,,,,,,,,,,,,,,,,,,,,,,,,,,3,422.4984045,None,['3'],0,[1.4313195999711752],422.4984045,None,422.4984045,None,"[3.994151800055988, 1.8043714000377804, 2.3673375999787822, 1.8942016999935731, 1.998997600050643, 1.6826831999933347, 1.779987100046128, 2.5859877000330016, 1.6052820000331849, 1.4313195999711752]",422.4984045,None,424.4633153,None,,,,,,,,,,,,,,,,,,,,,,,,,,,,,,,,,,,,,,,,,,,,,,,,,,,,,,,,,,,,,,,,,,,,,,,,,,,,,,,,,,,,,S2,1,2019_Nov_12_1616,test_final,3.1.5,60.17383017
Practice,12,(8/2) + 4,8,,,,,,,,,0,0,0,0,0,10,10,11,,,,,,,,,,,,,,,,,,,,,,,,,,,,,,,,,,,,,,,,,,,,,,,,,,8,425.96163,None,['8'],0,[1.678490599966608],425.96163,None,425.96163,None,"[3.994151800055988, 1.8043714000377804, 2.3673375999787822, 1.8942016999935731, 1.998997600050643, 1.6826831999933347, 1.779987100046128, 2.5859877000330016, 1.6052820000331849, 1.4313195999711752, 1.678490599966608]",425.96163,None,428.1765112,None,,,,,,,,,,,,,,,,,,,,,,,,,,,,,,,,,,,,,,,,,,,,,,,,,,,,,,,,,,,,,,,,,,,,,,,,,,,,,,,,,,,,,S2,1,2019_Nov_12_1616,test_final,3.1.5,60.17383017
Practice,14,(6/3) + 4 ,6,,,,,,,,,0,0,0,0,0,11,11,13,,,,,,,,,,,,,,,,,,,,,,,,,,,,,,,,,,,,,,,,,,,,,,,,,,6,429.6746284,None,['6'],0,[1.5318603999912739],429.6746284,None,429.6746284,None,"[3.994151800055988, 1.8043714000377804, 2.3673375999787822, 1.8942016999935731, 1.998997600050643, 1.6826831999933347, 1.779987100046128, 2.5859877000330016, 1.6052820000331849, 1.4313195999711752, 1.678490599966608, 1.5318603999912739]",429.6746284,None,431.7393686,None,,,,,,,,,,,,,,,,,,,,,,,,,,,,,,,,,,,,,,,,,,,,,,,,,,,,,,,,,,,,,,,,,,,,,,,,,,,,,,,,,,,,,S2,1,2019_Nov_12_1616,test_final,3.1.5,60.17383017
Practice,5,(3/3) + 2,3,,,,,,,,,0,0,0,0,0,12,12,4,,,,,,,,,,,,,,,,,,,,,,,,,,,,,,,,,,,,,,,,,,,,,,,,,,3,433.2378522,None,['3'],0,[1.344693799968809],433.2378522,None,433.2378522,None,"[3.994151800055988, 1.8043714000377804, 2.3673375999787822, 1.8942016999935731, 1.998997600050643, 1.6826831999933347, 1.779987100046128, 2.5859877000330016, 1.6052820000331849, 1.4313195999711752, 1.678490599966608, 1.5318603999912739, 1.344693799968809]",433.2378522,None,435.1193013,None,,,,,,,,,,,,,,,,,,,,,,,,,,,,,,,,,,,,,,,,,,,,,,,,,,,,,,,,,,,,,,,,,,,,,,,,,,,,,,,,,,,,,S2,1,2019_Nov_12_1616,test_final,3.1.5,60.17383017
Practice,11,(5x3) - 7,8,,,,,,,,,0,0,0,0,0,13,13,10,,,,,,,,,,,,,,,,,,,,,,,,,,,,,,,,,,,,,,,,,,,,,,,,,,8,436.6179035,None,['8'],0,[1.8583574999356642],436.6179035,None,436.6179035,None,"[3.994151800055988, 1.8043714000377804, 2.3673375999787822, 1.8942016999935731, 1.998997600050643, 1.6826831999933347, 1.779987100046128, 2.5859877000330016, 1.6052820000331849, 1.4313195999711752, 1.678490599966608, 1.5318603999912739, 1.344693799968809, 1.8583574999356642]",436.6179035,None,439.0158613,None,,,,,,,,,,,,,,,,,,,,,,,,,,,,,,,,,,,,,,,,,,,,,,,,,,,,,,,,,,,,,,,,,,,,,,,,,,,,,,,,,,,,,S2,1,2019_Nov_12_1616,test_final,3.1.5,60.17383017
Practice,15,(9/3) - 2,1,,,,,,,,,0,0,0,0,0,14,14,14,,,,,,,,,,,,,,,,,,,,,,,,,,,,,,,,,,,,,,,,,,,,,,,,,,1,440.5143875,None,['1'],0,[1.524501399951987],440.5143875,None,440.5143875,None,"[3.994151800055988, 1.8043714000377804, 2.3673375999787822, 1.8942016999935731, 1.998997600050643, 1.6826831999933347, 1.779987100046128, 2.5859877000330016, 1.6052820000331849, 1.4313195999711752, 1.678490599966608, 1.5318603999912739, 1.344693799968809, 1.8583574999356642, 1.524501399951987]",440.5143875,None,442.5789063,None,,,,,,,,,,,,,,,,,,,,,,,,,,,,,,,,,,,,,,,,,,,,,,,,,,,,,,,,,,,,,,,,,,,,,,,,,,,,,,,,,,,,,S2,1,2019_Nov_12_1616,test_final,3.1.5,60.17383017
,,,,,,,,,,,,0,0,0,0,,,,,,,,,,,,,,,,,,,,,,,,,,,,,,,,,,,,,,,,,,,,,,,,,,,,,,,,,,,,,,,,,,,,,0.933333333,29.0822234,1.938814893,6.07467651,0.636379159,3.580673124,444.0774306,None,space,2.3338068,444.0774306,None,,,,,,,,,,,,,,,,,,,,,,,,,,,,,,,,,,,,,,,,,,,,,,,,,,,,,,,,,,,,,,,,,,,,,,,,,S2,1,2019_Nov_12_1616,test_final,3.1.5,60.17383017
,,,,,,,,,,,,,,,,,,,,,,,,,,,,,,,,,,,,,,,,,,,,,,,,,,,,,,,,,,,,,,,,,,,,,,,,,,,,,,,,,,,,,,,,,,,,,,,,446.9908488,None,space,6.9235031,446.9908488,None,,,,,,,,,,,,,,,,,,,,,,,,,,,,,,,,,,,,,,,,,,,,,,,,,,,,,,,,,,,,,,,,,,,S2,1,2019_Nov_12_1616,test_final,3.1.5,60.17383017
Practice,11,(5x3) - 7,8,,,,,,,,,,,,,,,,,0,0,0,0,0,0,0,0,0,0,0,10,,,,,,,,,,,,,,,,,,,,,,,,,,,,,,,,,,,,,,8,,,,,,,,,,,,,,,,,,,,,,,,,,,,,,,,,454.500339,None,['8'],0,[1.9119124999269843],454.500339,None,454.500339,None,454.500339,None,1,456.5068144,None,456.5068144,None,,,,,,,,,,,,,,,,,,,,,,,,,,,,,,,,,,,,,,,,,,,,,,,,,,,S2,1,2019_Nov_12_1616,test_final,3.1.5,60.17383017
,,,,,,,,,,,,,,,,,,,,0,0,0,0,0,0,0,0,,,,,,,,,,,,,,,,,,,,,,,,,,,,,,,,,,,,,,,,,,,,,,,,,,,,,,,,,,,,,,,,,,,,,,,,,,,,,,,,,,,,,,,,,,,457.8469206,None,,,,,,,,,,,,,,,,,,,,,,,,,,,,,,,,,,,,,,,,,,,,,,,,,S2,1,2019_Nov_12_1616,test_final,3.1.5,60.17383017
Practice,12,(8/2) + 4,8,,,,,,,,,,,,,,,,,0,0,0,0,1,0,1,0,0,0,0,11,,,,,,,,,,,,,,,,,,,,,,,,,,,,,,,,,,,,,,8,,,,,,,,,,,,,,,,,,,,,,,,,,,,,,,,,459.162364,None,['8'],0,[2.254523199982941],459.162364,None,459.162364,None,459.162364,None,1,461.5033137,None,461.5033137,None,,,,,,,,,,,,,,,,,,,,,,,,,,,,,,,,,,,,,,,,,,,,,,,,,,,S2,1,2019_Nov_12_1616,test_final,3.1.5,60.17383017
,,,,,,,,,,,,,,,,,,,,0,0,0,0,1,0,1,0,,,,,,,,,,,,,,,,,,,,,,,,,,,,,,,,,,,,,,,,,,,,,,,,,,,,,,,,,,,,,,,,,,,,,,,,,,,,,,,,,,,,,,,,,,,462.8589491,None,,,,,,,,,,,,,,,,,,,,,,,,,,,,,,,,,,,,,,,,,,,,,,,,,S2,1,2019_Nov_12_1616,test_final,3.1.5,60.17383017
,,,,,,,,,,,,,,,,,,,,0,0,0,0,,,,,,,,,,,,,,,,,,,,,,,,,,,,,,,,,,,,,,,,,,,,,,,,,,,,,,,,,,,,,,,,,,,,,,,,,,,,,,,,,,,,,,,,,,,,,,,,,jv,"['j', 'v']",0,"[1.110115799936466, 1.356410300009884, 2.1291401999769732]",464.1412954,None,464.1412954,None,464.1412954,None,1,466.8215602,None,,,,,,,,,,,,,,,,,,,,,,,,,,,,,,,,,,,,S2,1,2019_Nov_12_1616,test_final,3.1.5,60.17383017
Practice,7,(4x6) - 17,7,,,,,,,,,,,,,,,,,1,0,1,0,0,0,0,0,0,0,0,6,,,,,,,,,,,,,,,,,,,,,,,,,,,,,,,,,,,,,,7,,,,,,,,,,,,,,,,,,,,,,,,,,,,,,,,,468.3702735,None,['7'],0,[1.577615199959837],468.3702735,None,468.3702735,None,468.3702735,None,1,470.0326604,None,470.0326604,None,,,,,,,,,,,,,,,,,,,,,,,,,,,,,,,,,,,,,,,,,,,,,,,,,,,S2,1,2019_Nov_12_1616,test_final,3.1.5,60.17383017
,,,,,,,,,,,,,,,,,,,,1,0,1,0,0,0,0,0,,,,,,,,,,,,,,,,,,,,,,,,,,,,,,,,,,,,,,,,,,,,,,,,,,,,,,,,,,,,,,,,,,,,,,,,,,,,,,,,,,,,,,,,,,,471.38395,None,,,,,,,,,,,,,,,,,,,,,,,,,,,,,,,,,,,,,,,,,,,,,,,,,S2,1,2019_Nov_12_1616,test_final,3.1.5,60.17383017
Practice,13,(3x8) - 19 ,5,,,,,,,,,,,,,,,,,1,0,1,0,1,0,1,0,0,0,0,12,,,,,,,,,,,,,,,,,,,,,,,,,,,,,,,,,,,,,,5,,,,,,,,,,,,,,,,,,,,,,,,,,,,,,,,,472.6994147,None,['5'],0,[1.9647660000482574],472.6994147,None,472.6994147,None,472.6994147,None,1,474.7399265,None,474.7399265,None,,,,,,,,,,,,,,,,,,,,,,,,,,,,,,,,,,,,,,,,,,,,,,,,,,,S2,1,2019_Nov_12_1616,test_final,3.1.5,60.17383017
,,,,,,,,,,,,,,,,,,,,1,0,1,0,1,0,1,0,,,,,,,,,,,,,,,,,,,,,,,,,,,,,,,,,,,,,,,,,,,,,,,,,,,,,,,,,,,,,,,,,,,,,,,,,,,,,,,,,,,,,,,,,,,476.0788513,None,,,,,,,,,,,,,,,,,,,,,,,,,,,,,,,,,,,,,,,,,,,,,,,,,S2,1,2019_Nov_12_1616,test_final,3.1.5,60.17383017
,,,,,,,,,,,,,,,,,,,,1,0,1,0,,,,,,,,,,,,,,,,,,,,,,,,,,,,,,,,,,,,,,,,,,,,,,,,,,,,,,,,,,,,,,,,,,,,,,,,,,,,,,,,,,,,,,,,,,,,,,,,,kr,"['k', 'r']",0,"[0.8373424999881536, 1.1522716000908986, 1.4671728999819607]",477.377513,None,477.377513,None,477.377513,None,1,479.4088455,None,,,,,,,,,,,,,,,,,,,,,,,,,,,,,,,,,,,,S2,1,2019_Nov_12_1616,test_final,3.1.5,60.17383017
Practice,5,(3/3) + 2,3,,,,,,,,,,,,,,,,,2,0,2,0,0,0,0,0,0,0,0,4,,,,,,,,,,,,,,,,,,,,,,,,,,,,,,,,,,,,,,3,,,,,,,,,,,,,,,,,,,,,,,,,,,,,,,,,480.9241447,None,['3'],0,[1.9999969999771565],480.9241447,None,480.9241447,None,480.9241447,None,1,482.9896783,None,482.9896783,None,,,,,,,,,,,,,,,,,,,,,,,,,,,,,,,,,,,,,,,,,,,,,,,,,,,S2,1,2019_Nov_12_1616,test_final,3.1.5,60.17383017
,,,,,,,,,,,,,,,,,,,,2,0,2,0,0,0,0,0,,,,,,,,,,,,,,,,,,,,,,,,,,,,,,,,,,,,,,,,,,,,,,,,,,,,,,,,,,,,,,,,,,,,,,,,,,,,,,,,,,,,,,,,,,,484.320586,None,,,,,,,,,,,,,,,,,,,,,,,,,,,,,,,,,,,,,,,,,,,,,,,,,S2,1,2019_Nov_12_1616,test_final,3.1.5,60.17383017
Practice,11,(5x3) - 7,8,,,,,,,,,,,,,,,,,2,0,2,0,1,0,1,0,0,0,0,10,,,,,,,,,,,,,,,,,,,,,,,,,,,,,,,,,,,,,,8,,,,,,,,,,,,,,,,,,,,,,,,,,,,,,,,,485.6362334,None,['8'],0,[1.3374382000183687],485.6362334,None,485.6362334,None,485.6362334,None,1,487.055628,None,487.055628,None,,,,,,,,,,,,,,,,,,,,,,,,,,,,,,,,,,,,,,,,,,,,,,,,,,,S2,1,2019_Nov_12_1616,test_final,3.1.5,60.17383017
,,,,,,,,,,,,,,,,,,,,2,0,2,0,1,0,1,0,,,,,,,,,,,,,,,,,,,,,,,,,,,,,,,,,,,,,,,,,,,,,,,,,,,,,,,,,,,,,,,,,,,,,,,,,,,,,,,,,,,,,,,,,,,488.3832955,None,,,,,,,,,,,,,,,,,,,,,,,,,,,,,,,,,,,,,,,,,,,,,,,,,S2,1,2019_Nov_12_1616,test_final,3.1.5,60.17383017
,,,,,,,,,,,,,,,,,,,,2,0,2,0,,,,,,,,,,,,,,,,,,,,,,,,,,,,,,,,,,,,,,,,,,,,,,,,,,,,,,,,,,,,,,,,,,,,,,,,,,,,,,,,,,,,,,,,,,,,,,,,,xs,"['x', 's']",0,"[1.2661318000173196, 1.4235381000908092, 1.8089874000288546]",489.6823029,None,489.6823029,None,489.6823029,None,1,492.0464958,None,,,,,,,,,,,,,,,,,,,,,,,,,,,,,,,,,,,,S2,1,2019_Nov_12_1616,test_final,3.1.5,60.17383017
,,,,,,,,,,,,,,,,,,,,,,,,,,,,,,,,,,,,,,,,,,,,,,,,,,,,,,,,,,,,,,,,,,,,,,,,,,,,,,,,,,,,,,,,,,,,,,,,,,,,,,,,,,,,,,,,,,,,,,,,,,,,,,,,,,,,,493.5457019,None,space,6.7118499,493.5457019,None,,,,,,,,,,,,,,,,,,,,,,,,,,,,,,S2,1,2019_Nov_12_1616,test_final,3.1.5,60.17383017
Practice,15,(9/3) - 2,1,,,,,,,,,,,,,,,,,,,,,,,,,,,,,0,0,0,0,0,0,0,0,0,0,0,14,,,,,,,,,,,,,,,,,,,,,,,,,,1,,,,,,,,,,,,,,,,,,,,,,,,,,,,,,,,,,,,,,,,,,,,1,,,,,,,,,,,,,,,,,,,,,,,,,,500.8545673,None,['1'],0,[1.5851530000800267],500.8545673,None,500.8545673,None,500.8545673,None,502.5362375,None,502.5362375,None,,,,,,,,,,,,,,,S2,1,2019_Nov_12_1616,test_final,3.1.5,60.17383017
,,,,,,,,,,,,,,,,,,,,,,,,,,,,,,,,0,0,0,0,0,0,0,0,,,,,,,,,,,,,,,,,,,,,,,,,,,,,,,,,,,,,,,,,,,,,,,,,,,,,,,,,,,,,,,,,,,,,,,,,,,,,,,,,,,,,,,,,,,,,,,,,,,,,,,,,,,,,,,,,,,503.8853953,None,,,,,,,,,,,,,S2,1,2019_Nov_12_1616,test_final,3.1.5,60.17383017
Practice,12,(8/2) + 4,8,,,,,,,,,,,,,,,,,,,,,,,,,,,,,0,0,0,0,1,0,1,0,0,0,0,11,,,,,,,,,,,,,,,,,,,,,,,,,,8,,,,,,,,,,,,,,,,,,,,,,,,,,,,,,,,,,,,,,,,,,,,1,,,,,,,,,,,,,,,,,,,,,,,,,,505.167633,None,['8'],0,[1.3802736999932677],505.167633,None,505.167633,None,505.167633,None,506.6284688,None,506.6284688,None,,,,,,,,,,,,,,,S2,1,2019_Nov_12_1616,test_final,3.1.5,60.17383017
,,,,,,,,,,,,,,,,,,,,,,,,,,,,,,,,0,0,0,0,1,0,1,0,,,,,,,,,,,,,,,,,,,,,,,,,,,,,,,,,,,,,,,,,,,,,,,,,,,,,,,,,,,,,,,,,,,,,,,,,,,,,,,,,,,,,,,,,,,,,,,,,,,,,,,,,,,,,,,,,,,507.9810988,None,,,,,,,,,,,,,S2,1,2019_Nov_12_1616,test_final,3.1.5,60.17383017
,,,,,,,,,,,,,,,,,,,,,,,,,,,,,,,,0,0,0,0,,,,,,,,,,,,,,,,,,,,,,,,,,,,,,,,,,,,,,,,,,,,,,,,,,,,,,,,,,,,,,,,,,,,,,,,,,,,,,,,,,,,,,,,,,,,,,,,,,,,,,,,,,,,,,,,,,,,,,,,,ls,"['l', 's']",0,"[0.9057778000133112, 1.2066931000445038, 1.5951817000750452]",509.2634902,None,509.2634902,None,1,LS,509.2634902,None,S2,1,2019_Nov_12_1616,test_final,3.1.5,60.17383017
Practice,4,(4x4) - 14,2,,,,,,,,,,,,,,,,,,,,,,,,,,,,,1,0,1,0,0,0,0,0,0,0,0,3,,,,,,,,,,,,,,,,,,,,,,,,,,2,,,,,,,,,,,,,,,,,,,,,,,,,,,,,,,,,,,,,,,,,,,,1,,,,,,,,,,,,,,,,,,,,,,,,,,511.4445501,None,['2'],0,[1.5839402000419796],511.4445501,None,511.4445501,None,511.4445501,None,513.1199577,None,513.1199577,None,,,,,,,,,,,,,,,S2,1,2019_Nov_12_1616,test_final,3.1.5,60.17383017
,,,,,,,,,,,,,,,,,,,,,,,,,,,,,,,,1,0,1,0,0,0,0,0,,,,,,,,,,,,,,,,,,,,,,,,,,,,,,,,,,,,,,,,,,,,,,,,,,,,,,,,,,,,,,,,,,,,,,,,,,,,,,,,,,,,,,,,,,,,,,,,,,,,,,,,,,,,,,,,,,,514.4748871,None,,,,,,,,,,,,,S2,1,2019_Nov_12_1616,test_final,3.1.5,60.17383017
Practice,2,(1/1) - 1,0,,,,,,,,,,,,,,,,,,,,,,,,,,,,,1,0,1,0,1,0,1,0,0,0,0,1,,,,,,,,,,,,,,,,,,,,,,,,,,0,,,,,,,,,,,,,,,,,,,,,,,,,,,,,,,,,,,,,,,,,,,,1,,,,,,,,,,,,,,,,,,,,,,,,,,515.7903535,None,['0'],0,[1.2771730999229476],515.7903535,None,515.7903535,None,515.7903535,None,517.1538115,None,517.1538115,None,,,,,,,,,,,,,,,S2,1,2019_Nov_12_1616,test_final,3.1.5,60.17383017
,,,,,,,,,,,,,,,,,,,,,,,,,,,,,,,,1,0,1,0,1,0,1,0,,,,,,,,,,,,,,,,,,,,,,,,,,,,,,,,,,,,,,,,,,,,,,,,,,,,,,,,,,,,,,,,,,,,,,,,,,,,,,,,,,,,,,,,,,,,,,,,,,,,,,,,,,,,,,,,,,,518.5043544,None,,,,,,,,,,,,,S2,1,2019_Nov_12_1616,test_final,3.1.5,60.17383017
Practice,12,(8/2) + 4,8,,,,,,,,,,,,,,,,,,,,,,,,,,,,,1,0,1,0,2,0,2,0,0,0,0,11,,,,,,,,,,,,,,,,,,,,,,,,,,8,,,,,,,,,,,,,,,,,,,,,,,,,,,,,,,,,,,,,,,,,,,,1,,,,,,,,,,,,,,,,,,,,,,,,,,519.8198528,None,['8'],0,[1.92376170004718],519.8198528,None,519.8198528,None,519.8198528,None,521.8209276,None,521.8209276,None,,,,,,,,,,,,,,,S2,1,2019_Nov_12_1616,test_final,3.1.5,60.17383017
,,,,,,,,,,,,,,,,,,,,,,,,,,,,,,,,1,0,1,0,2,0,2,0,,,,,,,,,,,,,,,,,,,,,,,,,,,,,,,,,,,,,,,,,,,,,,,,,,,,,,,,,,,,,,,,,,,,,,,,,,,,,,,,,,,,,,,,,,,,,,,,,,,,,,,,,,,,,,,,,,,523.1666513,None,,,,,,,,,,,,,S2,1,2019_Nov_12_1616,test_final,3.1.5,60.17383017
,,,,,,,,,,,,,,,,,,,,,,,,,,,,,,,,1,0,1,0,,,,,,,,,,,,,,,,,,,,,,,,,,,,,,,,,,,,,,,,,,,,,,,,,,,,,,,,,,,,,,,,,,,,,,,,,,,,,,,,,,,,,,,,,,,,,,,,,,,,,,,,,,,,,,,,,,,,,,,,,lzr,"['l', 'z', 'r']",0,"[0.837848800001666, 1.2230144999921322, 1.333822900080122, 1.7233421000419185]",524.4485298,None,524.4485298,None,1,LZR,524.4485298,None,S2,1,2019_Nov_12_1616,test_final,3.1.5,60.17383017
Practice,1,(1x2) + 1,3,,,,,,,,,,,,,,,,,,,,,,,,,,,,,2,0,2,0,0,0,0,0,0,0,0,0,,,,,,,,,,,,,,,,,,,,,,,,,,3,,,,,,,,,,,,,,,,,,,,,,,,,,,,,,,,,,,,,,,,,,,,1,,,,,,,,,,,,,,,,,,,,,,,,,,526.7463699,None,['3'],0,[1.4382430999539793],526.7463699,None,526.7463699,None,526.7463699,None,528.2890204,None,528.2890204,None,,,,,,,,,,,,,,,S2,1,2019_Nov_12_1616,test_final,3.1.5,60.17383017
,,,,,,,,,,,,,,,,,,,,,,,,,,,,,,,,2,0,2,0,0,0,0,0,,,,,,,,,,,,,,,,,,,,,,,,,,,,,,,,,,,,,,,,,,,,,,,,,,,,,,,,,,,,,,,,,,,,,,,,,,,,,,,,,,,,,,,,,,,,,,,,,,,,,,,,,,,,,,,,,,,529.6435011,None,,,,,,,,,,,,,S2,1,2019_Nov_12_1616,test_final,3.1.5,60.17383017
Practice,7,(4x6) - 17,7,,,,,,,,,,,,,,,,,,,,,,,,,,,,,2,0,2,0,1,0,1,0,0,0,0,6,,,,,,,,,,,,,,,,,,,,,,,,,,7,,,,,,,,,,,,,,,,,,,,,,,,,,,,,,,,,,,,,,,,,,,,1,,,,,,,,,,,,,,,,,,,,,,,,,,530.9586048,None,['7'],0,[2.707622900023125],530.9586048,None,530.9586048,None,530.9586048,None,533.7509565,None,533.7509565,None,,,,,,,,,,,,,,,S2,1,2019_Nov_12_1616,test_final,3.1.5,60.17383017
,,,,,,,,,,,,,,,,,,,,,,,,,,,,,,,,2,0,2,0,1,0,1,0,,,,,,,,,,,,,,,,,,,,,,,,,,,,,,,,,,,,,,,,,,,,,,,,,,,,,,,,,,,,,,,,,,,,,,,,,,,,,,,,,,,,,,,,,,,,,,,,,,,,,,,,,,,,,,,,,,,535.087766,None,,,,,,,,,,,,,S2,1,2019_Nov_12_1616,test_final,3.1.5,60.17383017
Practice,11,(5x3) - 7,8,,,,,,,,,,,,,,,,,,,,,,,,,,,,,2,0,2,0,2,0,2,0,0,0,0,10,,,,,,,,,,,,,,,,,,,,,,,,,,8,,,,,,,,,,,,,,,,,,,,,,,,,,,,,,,,,,,,,,,,,,,,1,,,,,,,,,,,,,,,,,,,,,,,,,,536.4199998,None,['8'],0,[1.4011802000459284],536.4199998,None,536.4199998,None,536.4199998,None,537.9201923,None,537.9201923,None,,,,,,,,,,,,,,,S2,1,2019_Nov_12_1616,test_final,3.1.5,60.17383017
,,,,,,,,,,,,,,,,,,,,,,,,,,,,,,,,2,0,2,0,2,0,2,0,,,,,,,,,,,,,,,,,,,,,,,,,,,,,,,,,,,,,,,,,,,,,,,,,,,,,,,,,,,,,,,,,,,,,,,,,,,,,,,,,,,,,,,,,,,,,,,,,,,,,,,,,,,,,,,,,,,539.2671876,None,,,,,,,,,,,,,S2,1,2019_Nov_12_1616,test_final,3.1.5,60.17383017
Practice,1,(1x2) + 1,3,,,,,,,,,,,,,,,,,,,,,,,,,,,,,2,0,2,0,3,0,3,0,0,0,0,0,,,,,,,,,,,,,,,,,,,,,,,,,,3,,,,,,,,,,,,,,,,,,,,,,,,,,,,,,,,,,,,,,,,,,,,1,,,,,,,,,,,,,,,,,,,,,,,,,,540.5827045,None,['3'],0,[2.078460199991241],540.5827045,None,540.5827045,None,540.5827045,None,542.7446624,None,542.7446624,None,,,,,,,,,,,,,,,S2,1,2019_Nov_12_1616,test_final,3.1.5,60.17383017
,,,,,,,,,,,,,,,,,,,,,,,,,,,,,,,,2,0,2,0,3,0,3,0,,,,,,,,,,,,,,,,,,,,,,,,,,,,,,,,,,,,,,,,,,,,,,,,,,,,,,,,,,,,,,,,,,,,,,,,,,,,,,,,,,,,,,,,,,,,,,,,,,,,,,,,,,,,,,,,,,,544.0790057,None,,,,,,,,,,,,,S2,1,2019_Nov_12_1616,test_final,3.1.5,60.17383017
,,,,,,,,,,,,,,,,,,,,,,,,,,,,,,,,2,0,2,0,,,,,,,,,,,,,,,,,,,,,,,,,,,,,,,,,,,,,,,,,,,,,,,,,,,,,,,,,,,,,,,,,,,,,,,,,,,,,,,,,,,,,,,,,,,,,,,,,,,,,,,,,,,,,,,,,,,,,,,,,rlzh,"['r', 'l', 'z', 'h']",0,"[0.8225776000181213, 1.3141625999705866, 1.8213501999853179, 2.2361585999606177, 2.9679688999895006]",545.3779762,None,545.3779762,None,1,RLZH,545.3779762,None,S2,1,2019_Nov_12_1616,test_final,3.1.5,60.17383017
Practice,15,(9/3) - 2,1,,,,,,,,,,,,,,,,,,,,,,,,,,,,,3,0,3,0,0,0,0,0,0,0,0,14,,,,,,,,,,,,,,,,,,,,,,,,,,1,,,,,,,,,,,,,,,,,,,,,,,,,,,,,,,,,,,,,,,,,,,,1,,,,,,,,,,,,,,,,,,,,,,,,,,548.9413912,None,['1'],0,[1.3659954000031576],548.9413912,None,548.9413912,None,548.9413912,None,550.3929649,None,550.3929649,None,,,,,,,,,,,,,,,S2,1,2019_Nov_12_1616,test_final,3.1.5,60.17383017
,,,,,,,,,,,,,,,,,,,,,,,,,,,,,,,,3,0,3,0,0,0,0,0,,,,,,,,,,,,,,,,,,,,,,,,,,,,,,,,,,,,,,,,,,,,,,,,,,,,,,,,,,,,,,,,,,,,,,,,,,,,,,,,,,,,,,,,,,,,,,,,,,,,,,,,,,,,,,,,,,,551.7384872,None,,,,,,,,,,,,,S2,1,2019_Nov_12_1616,test_final,3.1.5,60.17383017
Practice,6,(2x6) - 8,4,,,,,,,,,,,,,,,,,,,,,,,,,,,,,3,0,3,0,1,0,1,0,0,0,0,5,,,,,,,,,,,,,,,,,,,,,,,,,,4,,,,,,,,,,,,,,,,,,,,,,,,,,,,,,,,,,,,,,,,,,,,1,,,,,,,,,,,,,,,,,,,,,,,,,,553.0373889,None,['4'],0,[1.299203500035219],553.0373889,None,553.0373889,None,553.0373889,None,554.4179556,None,554.4179556,None,,,,,,,,,,,,,,,S2,1,2019_Nov_12_1616,test_final,3.1.5,60.17383017
,,,,,,,,,,,,,,,,,,,,,,,,,,,,,,,,3,0,3,0,1,0,1,0,,,,,,,,,,,,,,,,,,,,,,,,,,,,,,,,,,,,,,,,,,,,,,,,,,,,,,,,,,,,,,,,,,,,,,,,,,,,,,,,,,,,,,,,,,,,,,,,,,,,,,,,,,,,,,,,,,,555.7677218,None,,,,,,,,,,,,,S2,1,2019_Nov_12_1616,test_final,3.1.5,60.17383017
Practice,4,(4x4) - 14,2,,,,,,,,,,,,,,,,,,,,,,,,,,,,,3,0,3,0,2,0,2,0,0,0,0,3,,,,,,,,,,,,,,,,,,,,,,,,,,2,,,,,,,,,,,,,,,,,,,,,,,,,,,,,,,,,,,,,,,,,,,,1,,,,,,,,,,,,,,,,,,,,,,,,,,557.0830123,None,['2'],0,[1.554739199928008],557.0830123,None,557.0830123,None,557.0830123,None,558.7465821,None,558.7465821,None,,,,,,,,,,,,,,,S2,1,2019_Nov_12_1616,test_final,3.1.5,60.17383017
,,,,,,,,,,,,,,,,,,,,,,,,,,,,,,,,3,0,3,0,2,0,2,0,,,,,,,,,,,,,,,,,,,,,,,,,,,,,,,,,,,,,,,,,,,,,,,,,,,,,,,,,,,,,,,,,,,,,,,,,,,,,,,,,,,,,,,,,,,,,,,,,,,,,,,,,,,,,,,,,,,560.0969132,None,,,,,,,,,,,,,S2,1,2019_Nov_12_1616,test_final,3.1.5,60.17383017
Practice,6,(2x6) - 8,4,,,,,,,,,,,,,,,,,,,,,,,,,,,,,3,0,3,0,3,0,3,0,0,0,0,5,,,,,,,,,,,,,,,,,,,,,,,,,,4,,,,,,,,,,,,,,,,,,,,,,,,,,,,,,,,,,,,,,,,,,,,1,,,,,,,,,,,,,,,,,,,,,,,,,,561.412139,None,['4'],0,[1.8327200000640005],561.412139,None,561.412139,None,561.412139,None,563.3253498,None,563.3253498,None,,,,,,,,,,,,,,,S2,1,2019_Nov_12_1616,test_final,3.1.5,60.17383017
,,,,,,,,,,,,,,,,,,,,,,,,,,,,,,,,3,0,3,0,3,0,3,0,,,,,,,,,,,,,,,,,,,,,,,,,,,,,,,,,,,,,,,,,,,,,,,,,,,,,,,,,,,,,,,,,,,,,,,,,,,,,,,,,,,,,,,,,,,,,,,,,,,,,,,,,,,,,,,,,,,564.675755,None,,,,,,,,,,,,,S2,1,2019_Nov_12_1616,test_final,3.1.5,60.17383017
Practice,10,(8/4) + 3,5,,,,,,,,,,,,,,,,,,,,,,,,,,,,,3,0,3,0,4,0,4,0,0,0,0,9,,,,,,,,,,,,,,,,,,,,,,,,,,5,,,,,,,,,,,,,,,,,,,,,,,,,,,,,,,,,,,,,,,,,,,,1,,,,,,,,,,,,,,,,,,,,,,,,,,565.9912072,None,['5'],0,[1.6196351998951286],565.9912072,None,565.9912072,None,565.9912072,None,567.702156,None,567.702156,None,,,,,,,,,,,,,,,S2,1,2019_Nov_12_1616,test_final,3.1.5,60.17383017
,,,,,,,,,,,,,,,,,,,,,,,,,,,,,,,,3,0,3,0,4,0,4,0,,,,,,,,,,,,,,,,,,,,,,,,,,,,,,,,,,,,,,,,,,,,,,,,,,,,,,,,,,,,,,,,,,,,,,,,,,,,,,,,,,,,,,,,,,,,,,,,,,,,,,,,,,,,,,,,,,,569.0544038,None,,,,,,,,,,,,,S2,1,2019_Nov_12_1616,test_final,3.1.5,60.17383017
,,,,,,,,,,,,,,,,,,,,,,,,,,,,,,,,3,0,3,0,,,,,,,,,,,,,,,,,,,,,,,,,,,,,,,,,,,,,,,,,,,,,,,,,,,,,,,,,,,,,,,,,,,,,,,,,,,,,,,,,,,,,,,,,,,,,,,,,,,,,,,,,,,,,,,,,,,,,,,,,qhltx,"['q', 'h', 'l', 't', 'x']",0,"[1.9842733999248594, 2.5220606999937445, 2.664100299938582, 2.9236507999012247, 3.142772699939087, 6.324656099895947]",570.3366395,None,570.3366395,None,1,QHLTX,570.3366395,None,S2,1,2019_Nov_12_1616,test_final,3.1.5,60.17383017
Practice,13,(3x8) - 19 ,5,,,,,,,,,,,,,,,,,,,,,,,,,,,,,4,0,4,0,0,0,0,0,0,0,0,12,,,,,,,,,,,,,,,,,,,,,,,,,,5,,,,,,,,,,,,,,,,,,,,,,,,,,,,,,,,,,,,,,,,,,,,1,,,,,,,,,,,,,,,,,,,,,,,,,,577.2469791,None,['5'],0,[2.7482460000319406],577.2469791,None,577.2469791,None,577.2469791,None,580.0741455,None,580.0741455,None,,,,,,,,,,,,,,,S2,1,2019_Nov_12_1616,test_final,3.1.5,60.17383017
,,,,,,,,,,,,,,,,,,,,,,,,,,,,,,,,4,0,4,0,0,0,0,0,,,,,,,,,,,,,,,,,,,,,,,,,,,,,,,,,,,,,,,,,,,,,,,,,,,,,,,,,,,,,,,,,,,,,,,,,,,,,,,,,,,,,,,,,,,,,,,,,,,,,,,,,,,,,,,,,,,581.4259681,None,,,,,,,,,,,,,S2,1,2019_Nov_12_1616,test_final,3.1.5,60.17383017
Practice,15,(9/3) - 2,1,,,,,,,,,,,,,,,,,,,,,,,,,,,,,4,0,4,0,1,0,1,0,0,0,0,14,,,,,,,,,,,,,,,,,,,,,,,,,,1,,,,,,,,,,,,,,,,,,,,,,,,,,,,,,,,,,,,,,,,,,,,1,,,,,,,,,,,,,,,,,,,,,,,,,,582.7413113,None,['1'],0,[1.2291596999857575],582.7413113,None,582.7413113,None,582.7413113,None,584.0530679,None,584.0530679,None,,,,,,,,,,,,,,,S2,1,2019_Nov_12_1616,test_final,3.1.5,60.17383017
,,,,,,,,,,,,,,,,,,,,,,,,,,,,,,,,4,0,4,0,1,0,1,0,,,,,,,,,,,,,,,,,,,,,,,,,,,,,,,,,,,,,,,,,,,,,,,,,,,,,,,,,,,,,,,,,,,,,,,,,,,,,,,,,,,,,,,,,,,,,,,,,,,,,,,,,,,,,,,,,,,585.3886399,None,,,,,,,,,,,,,S2,1,2019_Nov_12_1616,test_final,3.1.5,60.17383017
Practice,7,(4x6) - 17,7,,,,,,,,,,,,,,,,,,,,,,,,,,,,,4,0,4,0,2,0,2,0,0,0,0,6,,,,,,,,,,,,,,,,,,,,,,,,,,7,,,,,,,,,,,,,,,,,,,,,,,,,,,,,,,,,,,,,,,,,,,,1,,,,,,,,,,,,,,,,,,,,,,,,,,586.7205531,None,['7'],0,[2.2858848000178114],586.7205531,None,586.7205531,None,586.7205531,None,589.098793,None,589.098793,None,,,,,,,,,,,,,,,S2,1,2019_Nov_12_1616,test_final,3.1.5,60.17383017
,,,,,,,,,,,,,,,,,,,,,,,,,,,,,,,,4,0,4,0,2,0,2,0,,,,,,,,,,,,,,,,,,,,,,,,,,,,,,,,,,,,,,,,,,,,,,,,,,,,,,,,,,,,,,,,,,,,,,,,,,,,,,,,,,,,,,,,,,,,,,,,,,,,,,,,,,,,,,,,,,,590.4502565,None,,,,,,,,,,,,,S2,1,2019_Nov_12_1616,test_final,3.1.5,60.17383017
Practice,8,(3/3) + 5,6,,,,,,,,,,,,,,,,,,,,,,,,,,,,,4,0,4,0,3,0,3,0,0,0,0,7,,,,,,,,,,,,,,,,,,,,,,,,,,6,,,,,,,,,,,,,,,,,,,,,,,,,,,,,,,,,,,,,,,,,,,,1,,,,,,,,,,,,,,,,,,,,,,,,,,591.7656536,None,['6'],0,[1.6585145000135526],591.7656536,None,591.7656536,None,591.7656536,None,593.5067651,None,593.5067651,None,,,,,,,,,,,,,,,S2,1,2019_Nov_12_1616,test_final,3.1.5,60.17383017
,,,,,,,,,,,,,,,,,,,,,,,,,,,,,,,,4,0,4,0,3,0,3,0,,,,,,,,,,,,,,,,,,,,,,,,,,,,,,,,,,,,,,,,,,,,,,,,,,,,,,,,,,,,,,,,,,,,,,,,,,,,,,,,,,,,,,,,,,,,,,,,,,,,,,,,,,,,,,,,,,,594.8459926,None,,,,,,,,,,,,,S2,1,2019_Nov_12_1616,test_final,3.1.5,60.17383017
Practice,7,(4x6) - 17,7,,,,,,,,,,,,,,,,,,,,,,,,,,,,,4,0,4,0,4,0,4,0,0,0,0,6,,,,,,,,,,,,,,,,,,,,,,,,,,7,,,,,,,,,,,,,,,,,,,,,,,,,,,,,,,,,,,,,,,,,,,,1,,,,,,,,,,,,,,,,,,,,,,,,,,596.1777623,None,['7'],0,[2.0678776999702677],596.1777623,None,596.1777623,None,596.1777623,None,598.3412797,None,598.3412797,None,,,,,,,,,,,,,,,S2,1,2019_Nov_12_1616,test_final,3.1.5,60.17383017
,,,,,,,,,,,,,,,,,,,,,,,,,,,,,,,,4,0,4,0,4,0,4,0,,,,,,,,,,,,,,,,,,,,,,,,,,,,,,,,,,,,,,,,,,,,,,,,,,,,,,,,,,,,,,,,,,,,,,,,,,,,,,,,,,,,,,,,,,,,,,,,,,,,,,,,,,,,,,,,,,,599.6912579,None,,,,,,,,,,,,,S2,1,2019_Nov_12_1616,test_final,3.1.5,60.17383017
Practice,9,(4/2) + 5,7,,,,,,,,,,,,,,,,,,,,,,,,,,,,,4,0,4,0,5,0,5,0,0,0,0,8,,,,,,,,,,,,,,,,,,,,,,,,,,7,,,,,,,,,,,,,,,,,,,,,,,,,,,,,,,,,,,,,,,,,,,,1,,,,,,,,,,,,,,,,,,,,,,,,,,601.0068848,None,['7'],0,[2.714554200065322],601.0068848,None,601.0068848,None,601.0068848,None,603.808745,None,603.808745,None,,,,,,,,,,,,,,,S2,1,2019_Nov_12_1616,test_final,3.1.5,60.17383017
,,,,,,,,,,,,,,,,,,,,,,,,,,,,,,,,4,0,4,0,5,0,5,0,,,,,,,,,,,,,,,,,,,,,,,,,,,,,,,,,,,,,,,,,,,,,,,,,,,,,,,,,,,,,,,,,,,,,,,,,,,,,,,,,,,,,,,,,,,,,,,,,,,,,,,,,,,,,,,,,,,605.152587,None,,,,,,,,,,,,,S2,1,2019_Nov_12_1616,test_final,3.1.5,60.17383017
,,,,,,,,,,,,,,,,,,,,,,,,,,,,,,,,4,0,4,0,,,,,,,,,,,,,,,,,,,,,,,,,,,,,,,,,,,,,,,,,,,,,,,,,,,,,,,,,,,,,,,,,,,,,,,,,,,,,,,,,,,,,,,,,,,,,,,,,,,,,,,,,,,,,,,,,,,,,,,,,qnhjvz,"['q', 'n', 'h', 'j', 'v', 'z']",0,"[1.3027192000299692, 1.8638794999569654, 2.196091099991463, 2.335486999945715, 3.116306299925782, 3.752660600002855, 4.636419199989177]",606.4346226,None,606.4346226,None,1,QNHJVZ,606.4346226,None,S2,1,2019_Nov_12_1616,test_final,3.1.5,60.17383017
Practice,2,(1/1) - 1,0,,,,,,,,,,,,,,,,,,,,,,,,,,,,,5,0,5,0,0,0,0,0,0,0,0,1,,,,,,,,,,,,,,,,,,,,,,,,,,0,,,,,,,,,,,,,,,,,,,,,,,,,,,,,,,,,,,,,,,,,,,,1,,,,,,,,,,,,,,,,,,,,,,,,,,611.6632384,None,['0'],0,[1.1573676000116393],611.6632384,None,611.6632384,None,611.6632384,None,612.9061958,None,612.9061958,None,,,,,,,,,,,,,,,S2,1,2019_Nov_12_1616,test_final,3.1.5,60.17383017
,,,,,,,,,,,,,,,,,,,,,,,,,,,,,,,,5,0,5,0,0,0,0,0,,,,,,,,,,,,,,,,,,,,,,,,,,,,,,,,,,,,,,,,,,,,,,,,,,,,,,,,,,,,,,,,,,,,,,,,,,,,,,,,,,,,,,,,,,,,,,,,,,,,,,,,,,,,,,,,,,,614.2436853,None,,,,,,,,,,,,,S2,1,2019_Nov_12_1616,test_final,3.1.5,60.17383017
Practice,2,(1/1) - 1,0,,,,,,,,,,,,,,,,,,,,,,,,,,,,,5,0,5,0,1,0,1,0,0,0,0,1,,,,,,,,,,,,,,,,,,,,,,,,,,0,,,,,,,,,,,,,,,,,,,,,,,,,,,,,,,,,,,,,,,,,,,,1,,,,,,,,,,,,,,,,,,,,,,,,,,615.5759526,None,['0'],0,[0.9329358999384567],615.5759526,None,615.5759526,None,615.5759526,None,616.5972487,None,616.5972487,None,,,,,,,,,,,,,,,S2,1,2019_Nov_12_1616,test_final,3.1.5,60.17383017
,,,,,,,,,,,,,,,,,,,,,,,,,,,,,,,,5,0,5,0,1,0,1,0,,,,,,,,,,,,,,,,,,,,,,,,,,,,,,,,,,,,,,,,,,,,,,,,,,,,,,,,,,,,,,,,,,,,,,,,,,,,,,,,,,,,,,,,,,,,,,,,,,,,,,,,,,,,,,,,,,,617.9566847,None,,,,,,,,,,,,,S2,1,2019_Nov_12_1616,test_final,3.1.5,60.17383017
Practice,15,(9/3) - 2,1,,,,,,,,,,,,,,,,,,,,,,,,,,,,,5,0,5,0,2,0,2,0,0,0,0,14,,,,,,,,,,,,,,,,,,,,,,,,,,1,,,,,,,,,,,,,,,,,,,,,,,,,,,,,,,,,,,,,,,,,,,,1,,,,,,,,,,,,,,,,,,,,,,,,,,619.2557035,None,['1'],0,[1.575710800010711],619.2557035,None,619.2557035,None,619.2557035,None,620.9166703,None,620.9166703,None,,,,,,,,,,,,,,,S2,1,2019_Nov_12_1616,test_final,3.1.5,60.17383017
,,,,,,,,,,,,,,,,,,,,,,,,,,,,,,,,5,0,5,0,2,0,2,0,,,,,,,,,,,,,,,,,,,,,,,,,,,,,,,,,,,,,,,,,,,,,,,,,,,,,,,,,,,,,,,,,,,,,,,,,,,,,,,,,,,,,,,,,,,,,,,,,,,,,,,,,,,,,,,,,,,622.2523269,None,,,,,,,,,,,,,S2,1,2019_Nov_12_1616,test_final,3.1.5,60.17383017
Practice,9,(4/2) + 5,7,,,,,,,,,,,,,,,,,,,,,,,,,,,,,5,0,5,0,3,0,3,0,0,0,0,8,,,,,,,,,,,,,,,,,,,,,,,,,,7,,,,,,,,,,,,,,,,,,,,,,,,,,,,,,,,,,,,,,,,,,,,1,,,,,,,,,,,,,,,,,,,,,,,,,,623.5680283,None,['7'],0,[1.9872836000286043],623.5680283,None,623.5680283,None,623.5680283,None,625.6483925,None,625.6483925,None,,,,,,,,,,,,,,,S2,1,2019_Nov_12_1616,test_final,3.1.5,60.17383017
,,,,,,,,,,,,,,,,,,,,,,,,,,,,,,,,5,0,5,0,3,0,3,0,,,,,,,,,,,,,,,,,,,,,,,,,,,,,,,,,,,,,,,,,,,,,,,,,,,,,,,,,,,,,,,,,,,,,,,,,,,,,,,,,,,,,,,,,,,,,,,,,,,,,,,,,,,,,,,,,,,626.9811577,None,,,,,,,,,,,,,S2,1,2019_Nov_12_1616,test_final,3.1.5,60.17383017
Practice,11,(5x3) - 7,8,,,,,,,,,,,,,,,,,,,,,,,,,,,,,5,0,5,0,4,0,4,0,0,0,0,10,,,,,,,,,,,,,,,,,,,,,,,,,,8,,,,,,,,,,,,,,,,,,,,,,,,,,,,,,,,,,,,,,,,,,,,1,,,,,,,,,,,,,,,,,,,,,,,,,,628.3136136,None,['8'],0,[1.1457534999353811],628.3136136,None,628.3136136,None,628.3136136,None,629.5264065,None,629.5264065,None,,,,,,,,,,,,,,,S2,1,2019_Nov_12_1616,test_final,3.1.5,60.17383017
,,,,,,,,,,,,,,,,,,,,,,,,,,,,,,,,5,0,5,0,4,0,4,0,,,,,,,,,,,,,,,,,,,,,,,,,,,,,,,,,,,,,,,,,,,,,,,,,,,,,,,,,,,,,,,,,,,,,,,,,,,,,,,,,,,,,,,,,,,,,,,,,,,,,,,,,,,,,,,,,,,630.860991,None,,,,,,,,,,,,,S2,1,2019_Nov_12_1616,test_final,3.1.5,60.17383017
Practice,2,(1/1) - 1,0,,,,,,,,,,,,,,,,,,,,,,,,,,,,,5,0,5,0,5,0,5,0,0,0,0,1,,,,,,,,,,,,,,,,,,,,,,,,,,0,,,,,,,,,,,,,,,,,,,,,,,,,,,,,,,,,,,,,,,,,,,,1,,,,,,,,,,,,,,,,,,,,,,,,,,632.1762379,None,['0'],0,[1.0627283999929205],632.1762379,None,632.1762379,None,632.1762379,None,633.3313053,None,633.3313053,None,,,,,,,,,,,,,,,S2,1,2019_Nov_12_1616,test_final,3.1.5,60.17383017
,,,,,,,,,,,,,,,,,,,,,,,,,,,,,,,,5,0,5,0,5,0,5,0,,,,,,,,,,,,,,,,,,,,,,,,,,,,,,,,,,,,,,,,,,,,,,,,,,,,,,,,,,,,,,,,,,,,,,,,,,,,,,,,,,,,,,,,,,,,,,,,,,,,,,,,,,,,,,,,,,,634.6738012,None,,,,,,,,,,,,,S2,1,2019_Nov_12_1616,test_final,3.1.5,60.17383017
Practice,2,(1/1) - 1,0,,,,,,,,,,,,,,,,,,,,,,,,,,,,,5,0,5,0,6,0,6,0,0,0,0,1,,,,,,,,,,,,,,,,,,,,,,,,,,0,,,,,,,,,,,,,,,,,,,,,,,,,,,,,,,,,,,,,,,,,,,,1,,,,,,,,,,,,,,,,,,,,,,,,,,635.972595,None,['0'],0,[0.773949799942784],635.972595,None,635.972595,None,635.972595,None,636.8226674,None,636.8226674,None,,,,,,,,,,,,,,,S2,1,2019_Nov_12_1616,test_final,3.1.5,60.17383017
,,,,,,,,,,,,,,,,,,,,,,,,,,,,,,,,5,0,5,0,6,0,6,0,,,,,,,,,,,,,,,,,,,,,,,,,,,,,,,,,,,,,,,,,,,,,,,,,,,,,,,,,,,,,,,,,,,,,,,,,,,,,,,,,,,,,,,,,,,,,,,,,,,,,,,,,,,,,,,,,,,638.1870555,None,,,,,,,,,,,,,S2,1,2019_Nov_12_1616,test_final,3.1.5,60.17383017
,,,,,,,,,,,,,,,,,,,,,,,,,,,,,,,,5,0,5,0,,,,,,,,,,,,,,,,,,,,,,,,,,,,,,,,,,,,,,,,,,,,,,,,,,,,,,,,,,,,,,,,,,,,,,,,,,,,,,,,,,,,,,,,,,,,,,,,,,,,,,,,,,,,,,,,,,,,,,,,,xtjnrqs,"['x', 't', 'j', 'n', 'r', 'q', 's']",0,"[0.8932434000307694, 1.273378000012599, 1.6498247000854462, 1.908288500038907, 2.270868599996902, 2.5409911000169814, 2.7728572000050917, 3.7776057000737637]",639.4522951,None,639.4522951,None,1,XTJNRQS,639.4522951,None,S2,1,2019_Nov_12_1616,test_final,3.1.5,60.17383017
Practice,6,(2x6) - 8,4,,,,,,,,,,,,,,,,,,,,,,,,,,,,,6,0,6,0,0,0,0,0,0,0,0,5,,,,,,,,,,,,,,,,,,,,,,,,,,4,,,,,,,,,,,,,,,,,,,,,,,,,,,,,,,,,,,,,,,,,,,,1,,,,,,,,,,,,,,,,,,,,,,,,,,643.7980533,None,['4'],0,[1.5930060000391677],643.7980533,None,643.7980533,None,643.7980533,None,645.4816812,None,645.4816812,None,,,,,,,,,,,,,,,S2,1,2019_Nov_12_1616,test_final,3.1.5,60.17383017
,,,,,,,,,,,,,,,,,,,,,,,,,,,,,,,,6,0,6,0,0,0,0,0,,,,,,,,,,,,,,,,,,,,,,,,,,,,,,,,,,,,,,,,,,,,,,,,,,,,,,,,,,,,,,,,,,,,,,,,,,,,,,,,,,,,,,,,,,,,,,,,,,,,,,,,,,,,,,,,,,,646.8284113,None,,,,,,,,,,,,,S2,1,2019_Nov_12_1616,test_final,3.1.5,60.17383017
Practice,6,(2x6) - 8,4,,,,,,,,,,,,,,,,,,,,,,,,,,,,,6,0,6,0,1,0,1,0,0,0,0,5,,,,,,,,,,,,,,,,,,,,,,,,,,4,,,,,,,,,,,,,,,,,,,,,,,,,,,,,,,,,,,,,,,,,,,,1,,,,,,,,,,,,,,,,,,,,,,,,,,648.1271687,None,['4'],0,[0.9271698000375181],648.1271687,None,648.1271687,None,648.1271687,None,649.129523,None,649.129523,None,,,,,,,,,,,,,,,S2,1,2019_Nov_12_1616,test_final,3.1.5,60.17383017
,,,,,,,,,,,,,,,,,,,,,,,,,,,,,,,,6,0,6,0,1,0,1,0,,,,,,,,,,,,,,,,,,,,,,,,,,,,,,,,,,,,,,,,,,,,,,,,,,,,,,,,,,,,,,,,,,,,,,,,,,,,,,,,,,,,,,,,,,,,,,,,,,,,,,,,,,,,,,,,,,,650.491278,None,,,,,,,,,,,,,S2,1,2019_Nov_12_1616,test_final,3.1.5,60.17383017
Practice,13,(3x8) - 19 ,5,,,,,,,,,,,,,,,,,,,,,,,,,,,,,6,0,6,0,2,0,2,0,0,0,0,12,,,,,,,,,,,,,,,,,,,,,,,,,,5,,,,,,,,,,,,,,,,,,,,,,,,,,,,,,,,,,,,,,,,,,,,1,,,,,,,,,,,,,,,,,,,,,,,,,,651.7738438,None,['5'],0,[2.097865700023249],651.7738438,None,651.7738438,None,651.7738438,None,653.9414355,None,653.9414355,None,,,,,,,,,,,,,,,S2,1,2019_Nov_12_1616,test_final,3.1.5,60.17383017
,,,,,,,,,,,,,,,,,,,,,,,,,,,,,,,,6,0,6,0,2,0,2,0,,,,,,,,,,,,,,,,,,,,,,,,,,,,,,,,,,,,,,,,,,,,,,,,,,,,,,,,,,,,,,,,,,,,,,,,,,,,,,,,,,,,,,,,,,,,,,,,,,,,,,,,,,,,,,,,,,,655.2864622,None,,,,,,,,,,,,,S2,1,2019_Nov_12_1616,test_final,3.1.5,60.17383017
Practice,6,(2x6) - 8,4,,,,,,,,,,,,,,,,,,,,,,,,,,,,,6,0,6,0,3,0,3,0,0,0,0,5,,,,,,,,,,,,,,,,,,,,,,,,,,4,,,,,,,,,,,,,,,,,,,,,,,,,,,,,,,,,,,,,,,,,,,,1,,,,,,,,,,,,,,,,,,,,,,,,,,656.6355505,None,['4'],0,[1.6084005000302568],656.6355505,None,656.6355505,None,656.6355505,None,658.331039,None,658.331039,None,,,,,,,,,,,,,,,S2,1,2019_Nov_12_1616,test_final,3.1.5,60.17383017
,,,,,,,,,,,,,,,,,,,,,,,,,,,,,,,,6,0,6,0,3,0,3,0,,,,,,,,,,,,,,,,,,,,,,,,,,,,,,,,,,,,,,,,,,,,,,,,,,,,,,,,,,,,,,,,,,,,,,,,,,,,,,,,,,,,,,,,,,,,,,,,,,,,,,,,,,,,,,,,,,,659.6821851,None,,,,,,,,,,,,,S2,1,2019_Nov_12_1616,test_final,3.1.5,60.17383017
Practice,15,(9/3) - 2,1,,,,,,,,,,,,,,,,,,,,,,,,,,,,,6,0,6,0,4,0,4,0,0,0,0,14,,,,,,,,,,,,,,,,,,,,,,,,,,1,,,,,,,,,,,,,,,,,,,,,,,,,,,,,,,,,,,,,,,,,,,,1,,,,,,,,,,,,,,,,,,,,,,,,,,660.9978357,None,['1'],0,[1.371537399943918],660.9978357,None,660.9978357,None,660.9978357,None,662.4632583,None,662.4632583,None,,,,,,,,,,,,,,,S2,1,2019_Nov_12_1616,test_final,3.1.5,60.17383017
,,,,,,,,,,,,,,,,,,,,,,,,,,,,,,,,6,0,6,0,4,0,4,0,,,,,,,,,,,,,,,,,,,,,,,,,,,,,,,,,,,,,,,,,,,,,,,,,,,,,,,,,,,,,,,,,,,,,,,,,,,,,,,,,,,,,,,,,,,,,,,,,,,,,,,,,,,,,,,,,,,663.811936,None,,,,,,,,,,,,,S2,1,2019_Nov_12_1616,test_final,3.1.5,60.17383017
Practice,2,(1/1) - 1,0,,,,,,,,,,,,,,,,,,,,,,,,,,,,,6,0,6,0,5,0,5,0,0,0,0,1,,,,,,,,,,,,,,,,,,,,,,,,,,0,,,,,,,,,,,,,,,,,,,,,,,,,,,,,,,,,,,,,,,,,,,,1,,,,,,,,,,,,,,,,,,,,,,,,,,665.1273102,None,['0'],0,[1.3019823000067845],665.1273102,None,665.1273102,None,665.1273102,None,666.5362601,None,666.5362601,None,,,,,,,,,,,,,,,S2,1,2019_Nov_12_1616,test_final,3.1.5,60.17383017
,,,,,,,,,,,,,,,,,,,,,,,,,,,,,,,,6,0,6,0,5,0,5,0,,,,,,,,,,,,,,,,,,,,,,,,,,,,,,,,,,,,,,,,,,,,,,,,,,,,,,,,,,,,,,,,,,,,,,,,,,,,,,,,,,,,,,,,,,,,,,,,,,,,,,,,,,,,,,,,,,,667.8907896,None,,,,,,,,,,,,,S2,1,2019_Nov_12_1616,test_final,3.1.5,60.17383017
Practice,10,(8/4) + 3,5,,,,,,,,,,,,,,,,,,,,,,,,,,,,,6,0,6,0,6,0,6,0,0,0,0,9,,,,,,,,,,,,,,,,,,,,,,,,,,5,,,,,,,,,,,,,,,,,,,,,,,,,,,,,,,,,,,,,,,,,,,,1,,,,,,,,,,,,,,,,,,,,,,,,,,669.206163,None,['5'],0,[3.4332919999724254],669.206163,None,669.206163,None,669.206163,None,672.7298809,None,672.7298809,None,,,,,,,,,,,,,,,S2,1,2019_Nov_12_1616,test_final,3.1.5,60.17383017
,,,,,,,,,,,,,,,,,,,,,,,,,,,,,,,,6,0,6,0,6,0,6,0,,,,,,,,,,,,,,,,,,,,,,,,,,,,,,,,,,,,,,,,,,,,,,,,,,,,,,,,,,,,,,,,,,,,,,,,,,,,,,,,,,,,,,,,,,,,,,,,,,,,,,,,,,,,,,,,,,,674.0682224,None,,,,,,,,,,,,,S2,1,2019_Nov_12_1616,test_final,3.1.5,60.17383017
Practice,14,(6/3) + 4 ,6,,,,,,,,,,,,,,,,,,,,,,,,,,,,,6,0,6,0,7,0,7,0,0,0,0,13,,,,,,,,,,,,,,,,,,,,,,,,,,2,,,,,,,,,,,,,,,,,,,,,,,,,,,,,,,,,,,,,,,,,,,,0,,,,,,,,,,,,,,,,,,,,,,,,,,675.40007,None,['2'],0,[2.6085289999609813],675.40007,None,675.40007,None,675.40007,None,678.1174915,None,678.1174915,None,,,,,,,,,,,,,,,S2,1,2019_Nov_12_1616,test_final,3.1.5,60.17383017
Practice,4,(4x4) - 14,2,,,,,,,,,,,,,,,,,,,,,,,,,,,,,6,0,6,0,7,0,7,0,0,1,1,3,,,,,,,,,,,,,,,,,,,,,,,,,,,,,,,,,,,,,,,,,,,,,,,,,,,,,,,,,,,,,,,,,,,,,,0,,,,,,,,,,,,,,,,,,,,,,,,,,679.4465306,None,None,0,,679.4465306,None,679.4465306,None,679.4465306,None,683.0406491,None,683.0406491,None,,,,,,,,,,,,,,,S2,1,2019_Nov_12_1616,test_final,3.1.5,60.17383017
Practice,13,(3x8) - 19 ,5,,,,,,,,,,,,,,,,,,,,,,,,,,,,,6,0,6,0,7,0,7,0,0,2,2,12,,,,,,,,,,,,,,,,,,,,,,,,,,5,,,,,,,,,,,,,,,,,,,,,,,,,,,,,,,,,,,,,,,,,,,,1,,,,,,,,,,,,,,,,,,,,,,,,,,684.3747402,None,['5'],0,[1.410712799988687],684.3747402,None,684.3747402,None,684.3747402,None,685.8491515,None,685.8491515,None,,,,,,,,,,,,,,,S2,1,2019_Nov_12_1616,test_final,3.1.5,60.17383017
,,,,,,,,,,,,,,,,,,,,,,,,,,,,,,,,6,0,6,0,7,0,7,0,,,,,,,,,,,,,,,,,,,,,,,,,,,,,,,,,,,,,,,,,,,,,,,,,,,,,,,,,,,,,,,,,,,,,,,,,,,,,,,,,,,,,,,,,,,,,,,,,,,,,,,,,,,,,,,,,,,687.1718336,None,,,,,,,,,,,,,S2,1,2019_Nov_12_1616,test_final,3.1.5,60.17383017
,,,,,,,,,,,,,,,,,,,,,,,,,,,,,,,,6,0,6,0,,,,,,,,,,,,,,,,,,,,,,,,,,,,,,,,,,,,,,,,,,,,,,,,,,,,,,,,,,,,,,,,,,,,,,,,,,,,,,,,,,,,,,,,,,,,,,,,,,,,,,,,,,,,,,,,,,,,,,,,,ljqzskn,"['l', 'j', 'q', 'z', 's', 'k', 'n']",0,"[1.7283523000078276, 2.0604432000545785, 2.851913999998942, 3.2902541999937966, 7.498142400057986, 8.181642700103112, 8.352131300023757, 8.951116700074635]",688.4711848,None,688.4711848,None,0,LJQZSKXN,688.4711848,None,S2,1,2019_Nov_12_1616,test_final,3.1.5,60.17383017
Practice,11,(5x3) - 7,8,,,,,,,,,,,,,,,,,,,,,,,,,,,,,7,0,7,0,0,0,0,0,0,0,0,10,,,,,,,,,,,,,,,,,,,,,,,,,,2,,,,,,,,,,,,,,,,,,,,,,,,,,,,,,,,,,,,,,,,,,,,0,,,,,,,,,,,,,,,,,,,,,,,,,,697.9951946,None,['2'],0,[1.7217165000038221],697.9951946,None,697.9951946,None,697.9951946,None,699.8371191,None,699.8371191,None,,,,,,,,,,,,,,,S2,1,2019_Nov_12_1616,test_final,3.1.5,60.17383017
Practice,14,(6/3) + 4 ,6,,,,,,,,,,,,,,,,,,,,,,,,,,,,,7,0,7,0,0,0,0,0,0,1,1,13,,,,,,,,,,,,,,,,,,,,,,,,,,6,,,,,,,,,,,,,,,,,,,,,,,,,,,,,,,,,,,,,,,,,,,,1,,,,,,,,,,,,,,,,,,,,,,,,,,701.1751762,None,['6'],0,[2.5770284000318497],701.1751762,None,701.1751762,None,701.1751762,None,703.8162376,None,703.8162376,None,,,,,,,,,,,,,,,S2,1,2019_Nov_12_1616,test_final,3.1.5,60.17383017
,,,,,,,,,,,,,,,,,,,,,,,,,,,,,,,,7,0,7,0,0,0,0,0,,,,,,,,,,,,,,,,,,,,,,,,,,,,,,,,,,,,,,,,,,,,,,,,,,,,,,,,,,,,,,,,,,,,,,,,,,,,,,,,,,,,,,,,,,,,,,,,,,,,,,,,,,,,,,,,,,,705.1212158,None,,,,,,,,,,,,,S2,1,2019_Nov_12_1616,test_final,3.1.5,60.17383017
Practice,10,(8/4) + 3,5,,,,,,,,,,,,,,,,,,,,,,,,,,,,,7,0,7,0,1,0,1,0,0,0,0,9,,,,,,,,,,,,,,,,,,,,,,,,,,5,,,,,,,,,,,,,,,,,,,,,,,,,,,,,,,,,,,,,,,,,,,,1,,,,,,,,,,,,,,,,,,,,,,,,,,706.4365402,None,['5'],0,[1.3127093999646604],706.4365402,None,706.4365402,None,706.4365402,None,707.8430612,None,707.8430612,None,,,,,,,,,,,,,,,S2,1,2019_Nov_12_1616,test_final,3.1.5,60.17383017
,,,,,,,,,,,,,,,,,,,,,,,,,,,,,,,,7,0,7,0,1,0,1,0,,,,,,,,,,,,,,,,,,,,,,,,,,,,,,,,,,,,,,,,,,,,,,,,,,,,,,,,,,,,,,,,,,,,,,,,,,,,,,,,,,,,,,,,,,,,,,,,,,,,,,,,,,,,,,,,,,,709.1838836,None,,,,,,,,,,,,,S2,1,2019_Nov_12_1616,test_final,3.1.5,60.17383017
Practice,2,(1/1) - 1,0,,,,,,,,,,,,,,,,,,,,,,,,,,,,,7,0,7,0,2,0,2,0,0,0,0,1,,,,,,,,,,,,,,,,,,,,,,,,,,0,,,,,,,,,,,,,,,,,,,,,,,,,,,,,,,,,,,,,,,,,,,,1,,,,,,,,,,,,,,,,,,,,,,,,,,710.4994316,None,['0'],0,[1.1906506000086665],710.4994316,None,710.4994316,None,710.4994316,None,711.8093477,None,711.8093477,None,,,,,,,,,,,,,,,S2,1,2019_Nov_12_1616,test_final,3.1.5,60.17383017
,,,,,,,,,,,,,,,,,,,,,,,,,,,,,,,,7,0,7,0,2,0,2,0,,,,,,,,,,,,,,,,,,,,,,,,,,,,,,,,,,,,,,,,,,,,,,,,,,,,,,,,,,,,,,,,,,,,,,,,,,,,,,,,,,,,,,,,,,,,,,,,,,,,,,,,,,,,,,,,,,,713.1467812,None,,,,,,,,,,,,,S2,1,2019_Nov_12_1616,test_final,3.1.5,60.17383017
Practice,6,(2x6) - 8,4,,,,,,,,,,,,,,,,,,,,,,,,,,,,,7,0,7,0,3,0,3,0,0,0,0,5,,,,,,,,,,,,,,,,,,,,,,,,,,4,,,,,,,,,,,,,,,,,,,,,,,,,,,,,,,,,,,,,,,,,,,,1,,,,,,,,,,,,,,,,,,,,,,,,,,714.4620784,None,['4'],0,[1.2950936999404803],714.4620784,None,714.4620784,None,714.4620784,None,715.8365321,None,715.8365321,None,,,,,,,,,,,,,,,S2,1,2019_Nov_12_1616,test_final,3.1.5,60.17383017
,,,,,,,,,,,,,,,,,,,,,,,,,,,,,,,,7,0,7,0,3,0,3,0,,,,,,,,,,,,,,,,,,,,,,,,,,,,,,,,,,,,,,,,,,,,,,,,,,,,,,,,,,,,,,,,,,,,,,,,,,,,,,,,,,,,,,,,,,,,,,,,,,,,,,,,,,,,,,,,,,,717.1762634,None,,,,,,,,,,,,,S2,1,2019_Nov_12_1616,test_final,3.1.5,60.17383017
Practice,1,(1x2) + 1,3,,,,,,,,,,,,,,,,,,,,,,,,,,,,,7,0,7,0,4,0,4,0,0,0,0,0,,,,,,,,,,,,,,,,,,,,,,,,,,3,,,,,,,,,,,,,,,,,,,,,,,,,,,,,,,,,,,,,,,,,,,,1,,,,,,,,,,,,,,,,,,,,,,,,,,718.491283,None,['3'],0,[1.590807699947618],718.491283,None,718.491283,None,718.491283,None,720.1794378,None,720.1794378,None,,,,,,,,,,,,,,,S2,1,2019_Nov_12_1616,test_final,3.1.5,60.17383017
,,,,,,,,,,,,,,,,,,,,,,,,,,,,,,,,7,0,7,0,4,0,4,0,,,,,,,,,,,,,,,,,,,,,,,,,,,,,,,,,,,,,,,,,,,,,,,,,,,,,,,,,,,,,,,,,,,,,,,,,,,,,,,,,,,,,,,,,,,,,,,,,,,,,,,,,,,,,,,,,,,721.5219137,None,,,,,,,,,,,,,S2,1,2019_Nov_12_1616,test_final,3.1.5,60.17383017
Practice,6,(2x6) - 8,4,,,,,,,,,,,,,,,,,,,,,,,,,,,,,7,0,7,0,5,0,5,0,0,0,0,5,,,,,,,,,,,,,,,,,,,,,,,,,,4,,,,,,,,,,,,,,,,,,,,,,,,,,,,,,,,,,,,,,,,,,,,1,,,,,,,,,,,,,,,,,,,,,,,,,,722.8373493,None,['4'],0,[1.6038381000980735],722.8373493,None,722.8373493,None,722.8373493,None,724.5305672,None,724.5305672,None,,,,,,,,,,,,,,,S2,1,2019_Nov_12_1616,test_final,3.1.5,60.17383017
,,,,,,,,,,,,,,,,,,,,,,,,,,,,,,,,7,0,7,0,5,0,5,0,,,,,,,,,,,,,,,,,,,,,,,,,,,,,,,,,,,,,,,,,,,,,,,,,,,,,,,,,,,,,,,,,,,,,,,,,,,,,,,,,,,,,,,,,,,,,,,,,,,,,,,,,,,,,,,,,,,725.8675276,None,,,,,,,,,,,,,S2,1,2019_Nov_12_1616,test_final,3.1.5,60.17383017
Practice,14,(6/3) + 4 ,6,,,,,,,,,,,,,,,,,,,,,,,,,,,,,7,0,7,0,6,0,6,0,0,0,0,13,,,,,,,,,,,,,,,,,,,,,,,,,,6,,,,,,,,,,,,,,,,,,,,,,,,,,,,,,,,,,,,,,,,,,,,1,,,,,,,,,,,,,,,,,,,,,,,,,,727.1830128,None,['6'],0,[1.6016365999821573],727.1830128,None,727.1830128,None,727.1830128,None,728.8874987,None,728.8874987,None,,,,,,,,,,,,,,,S2,1,2019_Nov_12_1616,test_final,3.1.5,60.17383017
,,,,,,,,,,,,,,,,,,,,,,,,,,,,,,,,7,0,7,0,6,0,6,0,,,,,,,,,,,,,,,,,,,,,,,,,,,,,,,,,,,,,,,,,,,,,,,,,,,,,,,,,,,,,,,,,,,,,,,,,,,,,,,,,,,,,,,,,,,,,,,,,,,,,,,,,,,,,,,,,,,730.2134331,None,,,,,,,,,,,,,S2,1,2019_Nov_12_1616,test_final,3.1.5,60.17383017
Practice,15,(9/3) - 2,1,,,,,,,,,,,,,,,,,,,,,,,,,,,,,7,0,7,0,7,0,7,0,0,0,0,14,,,,,,,,,,,,,,,,,,,,,,,,,,3,,,,,,,,,,,,,,,,,,,,,,,,,,,,,,,,,,,,,,,,,,,,0,,,,,,,,,,,,,,,,,,,,,,,,,,731.5283945,None,['3'],0,[1.2164182000560686],731.5283945,None,731.5283945,None,731.5283945,None,732.8234212,None,732.8234212,None,,,,,,,,,,,,,,,S2,1,2019_Nov_12_1616,test_final,3.1.5,60.17383017
Practice,9,(4/2) + 5,7,,,,,,,,,,,,,,,,,,,,,,,,,,,,,7,0,7,0,7,0,7,0,0,1,1,8,,,,,,,,,,,,,,,,,,,,,,,,,,7,,,,,,,,,,,,,,,,,,,,,,,,,,,,,,,,,,,,,,,,,,,,1,,,,,,,,,,,,,,,,,,,,,,,,,,734.1593521,None,['7'],0,[1.8223939000163227],734.1593521,None,734.1593521,None,734.1593521,None,736.0536127,None,736.0536127,None,,,,,,,,,,,,,,,S2,1,2019_Nov_12_1616,test_final,3.1.5,60.17383017
,,,,,,,,,,,,,,,,,,,,,,,,,,,,,,,,7,0,7,0,7,0,7,0,,,,,,,,,,,,,,,,,,,,,,,,,,,,,,,,,,,,,,,,,,,,,,,,,,,,,,,,,,,,,,,,,,,,,,,,,,,,,,,,,,,,,,,,,,,,,,,,,,,,,,,,,,,,,,,,,,,737.3728547,None,,,,,,,,,,,,,S2,1,2019_Nov_12_1616,test_final,3.1.5,60.17383017
,,,,,,,,,,,,,,,,,,,,,,,,,,,,,,,,7,0,7,0,,,,,,,,,,,,,,,,,,,,,,,,,,,,,,,,,,,,,,,,,,,,,,,,,,,,,,,,,,,,,,,,,,,,,,,,,,,,,,,,,,,,,,,,,,,,,,,,,,,,,,,,,,,,,,,,,,,,,,,,,txqnzrs,"['t', 'x', 'q', 'n', 'z', 'r', 's']",0,"[1.6013848999282345, 2.0046060999156907, 2.3166445000097156, 2.8654786999104545, 3.3171068999217823, 3.783739299979061, 4.881618099985644, 5.29499520000536, 5.884004899999127, 7.106562400003895]",738.6717988,None,738.6717988,None,0,TXQNZRSV,738.6717988,None,S2,1,2019_Nov_12_1616,test_final,3.1.5,60.17383017
