Task,Trial,Problem,Operation_answer,next_level.thisRepN,next_level.thisTrialN,next_level.thisN,next_level.thisIndex,next_letter.thisRepN,next_letter.thisTrialN,next_letter.thisN,next_letter.thisIndex,repeat_practice.thisRepN,repeat_practice.thisTrialN,repeat_practice.thisN,repeat_practice.thisIndex,trials.thisRepN,trials.thisTrialN,trials.thisN,trials.thisIndex,span_recall_prac.thisRepN,span_recall_prac.thisTrialN,span_recall_prac.thisN,span_recall_prac.thisIndex,span_size_prac.thisRepN,span_size_prac.thisTrialN,span_size_prac.thisN,span_size_prac.thisIndex,repeat_if_wrong_prac.thisRepN,repeat_if_wrong_prac.thisTrialN,repeat_if_wrong_prac.thisN,repeat_if_wrong_prac.thisIndex,span_recall.thisRepN,span_recall.thisTrialN,span_recall.thisN,span_recall.thisIndex,span_size.thisRepN,span_size.thisTrialN,span_size.thisN,span_size.thisIndex,repeat_if_wrong.thisRepN,repeat_if_wrong.thisTrialN,repeat_if_wrong.thisN,repeat_if_wrong.thisIndex,instructions_2.started,instructions_2.stopped,key_resp_4.keys,key_resp_4.rt,key_resp_4.started,key_resp_4.stopped,text_2.started,text_2.stopped,simple_recall,key_resp_5.keys,key_resp_5.rt,key_resp_5.started,key_resp_5.stopped,text_feedback.started,text_feedback.stopped,simple_recall_corr,simple_recall_corrkeys,instructions_3.started,instructions_3.stopped,instructions.started,instructions.stopped,key_resp_2.keys,key_resp_2.rt,key_resp_2.started,key_resp_2.stopped,digit_answer,operation.started,operation.stopped,key_resp.keys,key_resp.corr,key_resp.rt,key_resp.started,key_resp.stopped,operation_feedback.started,operation_feedback.stopped,RT_list,instructions_8.started,instructions_8.stopped,feedback_msg.started,feedback_msg.stopped,processing_score,sumRT,meanRT,sumdiff,sd,RT,feedback_msg_2.started,feedback_msg_2.stopped,key_resp_3.keys,key_resp_3.rt,key_resp_3.started,key_resp_3.stopped,instructions_4.started,instructions_4.stopped,key_resp_6.keys,key_resp_6.rt,key_resp_6.started,key_resp_6.stopped,operation_3.started,operation_3.stopped,key_resp_11.keys,key_resp_11.corr,key_resp_11.rt,key_resp_11.started,key_resp_11.stopped,operation_feedback_2.started,operation_feedback_2.stopped,instructions_9.started,instructions_9.stopped,operation_correct,feedback_msg_4.started,feedback_msg_4.stopped,operation_4.started,operation_4.stopped,text_3.started,text_3.stopped,complex_recall_prac,key_resp_9.keys,key_resp_9.corr,key_resp_9.rt,key_resp_9.started,key_resp_9.stopped,text_feedback_3.started,text_feedback_3.stopped,instructions_6.started,instructions_6.stopped,complex_prac_corr,feedback_msg_3.started,feedback_msg_3.stopped,instructions_7.started,instructions_7.stopped,key_resp_10.keys,key_resp_10.rt,key_resp_10.started,key_resp_10.stopped,operation_2.started,operation_2.stopped,key_resp_7.keys,key_resp_7.corr,key_resp_7.rt,key_resp_7.started,key_resp_7.stopped,operation_feedback_3.started,operation_feedback_3.stopped,instructions_10.started,instructions_10.stopped,feedback_msg_5.started,feedback_msg_5.stopped,operation_5.started,operation_5.stopped,text.started,text.stopped,complex_recall,key_resp_8.keys,key_resp_8.corr,key_resp_8.rt,key_resp_8.started,key_resp_8.stopped,text_feedback_2.started,text_feedback_2.stopped,complex_recall_corr,complex_recall_corrkeys,instructions_5.started,instructions_5.stopped,participant,session,date,expName,psychopyVersion,frameRate
,,,,,,,,,,,,,,,,,,,,,,,,,,,,,,,,,,,,,,,,,,,,19.7520322,None,space,26.9723252,19.7520322,None,,,,,,,,,,,,,,,,,,,,,,,,,,,,,,,,,,,,,,,,,,,,,,,,,,,,,,,,,,,,,,,,,,,,,,,,,,,,,,,,,,,,,,,,,,,,,,,,,,,,,,,,,,,,,,,,,,,,,,,S3,1,2019_Nov_19_1106,test_final,3.1.5,60.18860702
,,,,0,0,0,0,0,0,0,0,,,,,,,,,,,,,,,,,,,,,,,,,,,,,,,,,,,,,,,47.2916521,None,,,,,,,,,,,,,,,,,,,,,,,,,,,,,,,,,,,,,,,,,,,,,,,,,,,,,,,,,,,,,,,,,,,,,,,,,,,,,,,,,,,,,,,,,,,,,,,,,,,,,,,,,,,,,,,,,,,,,S3,1,2019_Nov_19_1106,test_final,3.1.5,60.18860702
,,,,0,0,0,0,1,0,1,0,,,,,,,,,,,,,,,,,,,,,,,,,,,,,,,,,,,,,,,48.573743,None,,,,,,,,,,,,,,,,,,,,,,,,,,,,,,,,,,,,,,,,,,,,,,,,,,,,,,,,,,,,,,,,,,,,,,,,,,,,,,,,,,,,,,,,,,,,,,,,,,,,,,,,,,,,,,,,,,,,,S3,1,2019_Nov_19_1106,test_final,3.1.5,60.18860702
,,,,1,0,1,0,0,0,0,0,,,,,,,,,,,,,,,,,,,,,,,,,,,,,,,,,,,,,,,54.4182295,None,nj,"['n', 'j']","[2.4866369999945164, 2.9335504000046058, 3.981538799998816]",49.8726767,None,49.8726767,None,1,NJ,49.8726767,None,,,,,,,,,,,,,,,,,,,,,,,,,,,,,,,,,,,,,,,,,,,,,,,,,,,,,,,,,,,,,,,,,,,,,,,,,,,,,,,,,,,,,,,,,,,,,,,,,,,,,,,,,,S3,1,2019_Nov_19_1106,test_final,3.1.5,60.18860702
,,,,1,0,1,0,1,0,1,0,,,,,,,,,,,,,,,,,,,,,,,,,,,,,,,,,,,,,,,55.7335427,None,,,,,,,,,,,,,,,,,,,,,,,,,,,,,,,,,,,,,,,,,,,,,,,,,,,,,,,,,,,,,,,,,,,,,,,,,,,,,,,,,,,,,,,,,,,,,,,,,,,,,,,,,,,,,,,,,,,,,S3,1,2019_Nov_19_1106,test_final,3.1.5,60.18860702
,,,,2,0,2,0,0,0,0,0,,,,,,,,,,,,,,,,,,,,,,,,,,,,,,,,,,,,,,,58.9804517,None,qx,"['q', 'x']","[0.7885690999974031, 1.1148137999989558, 1.385610800003633]",57.0324406,None,57.0324406,None,1,QX,57.0324406,None,,,,,,,,,,,,,,,,,,,,,,,,,,,,,,,,,,,,,,,,,,,,,,,,,,,,,,,,,,,,,,,,,,,,,,,,,,,,,,,,,,,,,,,,,,,,,,,,,,,,,,,,,,S3,1,2019_Nov_19_1106,test_final,3.1.5,60.18860702
,,,,2,0,2,0,1,0,1,0,,,,,,,,,,,,,,,,,,,,,,,,,,,,,,,,,,,,,,,60.2957709,None,,,,,,,,,,,,,,,,,,,,,,,,,,,,,,,,,,,,,,,,,,,,,,,,,,,,,,,,,,,,,,,,,,,,,,,,,,,,,,,,,,,,,,,,,,,,,,,,,,,,,,,,,,,,,,,,,,,,,S3,1,2019_Nov_19_1106,test_final,3.1.5,60.18860702
,,,,2,0,2,0,2,0,2,0,,,,,,,,,,,,,,,,,,,,,,,,,,,,,,,,,,,,,,,61.5944049,None,,,,,,,,,,,,,,,,,,,,,,,,,,,,,,,,,,,,,,,,,,,,,,,,,,,,,,,,,,,,,,,,,,,,,,,,,,,,,,,,,,,,,,,,,,,,,,,,,,,,,,,,,,,,,,,,,,,,,S3,1,2019_Nov_19_1106,test_final,3.1.5,60.18860702
,,,,3,0,3,0,0,0,0,0,,,,,,,,,,,,,,,,,,,,,,,,,,,,,,,,,,,,,,,64.9078961,None,zqt,"['z', 'q', 't']","[0.595904600006179, 0.8776168000040343, 1.1858216999971773, 1.458196699997643]",62.8932858,None,62.8932858,None,1,ZQT,62.8932858,None,,,,,,,,,,,,,,,,,,,,,,,,,,,,,,,,,,,,,,,,,,,,,,,,,,,,,,,,,,,,,,,,,,,,,,,,,,,,,,,,,,,,,,,,,,,,,,,,,,,,,,,,,,S3,1,2019_Nov_19_1106,test_final,3.1.5,60.18860702
,,,,3,0,3,0,1,0,1,0,,,,,,,,,,,,,,,,,,,,,,,,,,,,,,,,,,,,,,,66.2065453,65.6997191,,,,,,,,,,,,,,,,,,,,,,,,,,,,,,,,,,,,,,,,,,,,,,,,,,,,,,,,,,,,,,,,,,,,,,,,,,,,,,,,,,,,,,,,,,,,,,,,,,,,,,,,,,,,,,,,,,,,,S3,1,2019_Nov_19_1106,test_final,3.1.5,60.18860702
,,,,3,0,3,0,2,0,2,0,,,,,,,,,,,,,,,,,,,,,,,,,,,,,,,,,,,,,,,67.5050101,66.9931935,,,,,,,,,,,,,,,,,,,,,,,,,,,,,,,,,,,,,,,,,,,,,,,,,,,,,,,,,,,,,,,,,,,,,,,,,,,,,,,,,,,,,,,,,,,,,,,,,,,,,,,,,,,,,,,,,,,,,S3,1,2019_Nov_19_1106,test_final,3.1.5,60.18860702
,,,,4,0,4,0,0,0,0,0,,,,,,,,,,,,,,,,,,,,,,,,,,,,,,,,,,,,,,,71.1351906,None,xvj,"['x', 'v', 'j']","[0.7229335000010906, 1.0512413999967976, 1.561897499996121, 1.775627600000007]",68.8042546,None,68.8042546,None,1,XVJ,68.8042546,None,,,,,,,,,,,,,,,,,,,,,,,,,,,,,,,,,,,,,,,,,,,,,,,,,,,,,,,,,,,,,,,,,,,,,,,,,,,,,,,,,,,,,,,,,,,,,,,,,,,,,,,,,,S3,1,2019_Nov_19_1106,test_final,3.1.5,60.18860702
,,,,4,0,4,0,1,0,1,0,,,,,,,,,,,,,,,,,,,,,,,,,,,,,,,,,,,,,,,72.4506693,None,,,,,,,,,,,,,,,,,,,,,,,,,,,,,,,,,,,,,,,,,,,,,,,,,,,,,,,,,,,,,,,,,,,,,,,,,,,,,,,,,,,,,,,,,,,,,,,,,,,,,,,,,,,,,,,,,,,,,S3,1,2019_Nov_19_1106,test_final,3.1.5,60.18860702
,,,,4,0,4,0,2,0,2,0,,,,,,,,,,,,,,,,,,,,,,,,,,,,,,,,,,,,,,,73.7491489,None,,,,,,,,,,,,,,,,,,,,,,,,,,,,,,,,,,,,,,,,,,,,,,,,,,,,,,,,,,,,,,,,,,,,,,,,,,,,,,,,,,,,,,,,,,,,,,,,,,,,,,,,,,,,,,,,,,,,,S3,1,2019_Nov_19_1106,test_final,3.1.5,60.18860702
,,,,4,0,4,0,3,0,3,0,,,,,,,,,,,,,,,,,,,,,,,,,,,,,,,,,,,,,,,75.0480155,None,,,,,,,,,,,,,,,,,,,,,,,,,,,,,,,,,,,,,,,,,,,,,,,,,,,,,,,,,,,,,,,,,,,,,,,,,,,,,,,,,,,,,,,,,,,,,,,,,,,,,,,,,,,,,,,,,,,,,S3,1,2019_Nov_19_1106,test_final,3.1.5,60.18860702
,,,,5,0,5,0,0,0,0,0,,,,,,,,,,,,,,,,,,,,,,,,,,,,,,,,,,,,,,,79.4437999,None,ntxq,"['n', 't', 'x', 'q']","[0.8251233000046341, 1.1495759000099497, 1.7004178000061074, 1.9898138999997173, 2.536143000004813]",76.3467317,None,76.3467317,None,1,NTXQ,76.3467317,None,,,,,,,,,,,,,,,,,,,,,,,,,,,,,,,,,,,,,,,,,,,,,,,,,,,,,,,,,,,,,,,,,,,,,,,,,,,,,,,,,,,,,,,,,,,,,,,,,,,,,,,,,,S3,1,2019_Nov_19_1106,test_final,3.1.5,60.18860702
,,,,5,0,5,0,1,0,1,0,,,,,,,,,,,,,,,,,,,,,,,,,,,,,,,,,,,,,,,80.7589962,None,,,,,,,,,,,,,,,,,,,,,,,,,,,,,,,,,,,,,,,,,,,,,,,,,,,,,,,,,,,,,,,,,,,,,,,,,,,,,,,,,,,,,,,,,,,,,,,,,,,,,,,,,,,,,,,,,,,,,S3,1,2019_Nov_19_1106,test_final,3.1.5,60.18860702
,,,,5,0,5,0,2,0,2,0,,,,,,,,,,,,,,,,,,,,,,,,,,,,,,,,,,,,,,,82.0578139,None,,,,,,,,,,,,,,,,,,,,,,,,,,,,,,,,,,,,,,,,,,,,,,,,,,,,,,,,,,,,,,,,,,,,,,,,,,,,,,,,,,,,,,,,,,,,,,,,,,,,,,,,,,,,,,,,,,,,,S3,1,2019_Nov_19_1106,test_final,3.1.5,60.18860702
,,,,5,0,5,0,3,0,3,0,,,,,,,,,,,,,,,,,,,,,,,,,,,,,,,,,,,,,,,83.356702,None,,,,,,,,,,,,,,,,,,,,,,,,,,,,,,,,,,,,,,,,,,,,,,,,,,,,,,,,,,,,,,,,,,,,,,,,,,,,,,,,,,,,,,,,,,,,,,,,,,,,,,,,,,,,,,,,,,,,,S3,1,2019_Nov_19_1106,test_final,3.1.5,60.18860702
,,,,6,0,6,0,0,0,0,0,,,,,,,,,,,,,,,,,,,,,,,,,,,,,,,,,,,,,,,87.8688511,None,rqsv,"['r', 'q', 's', 'v']","[1.3859391000005417, 1.7982967999996617, 2.072971100002178, 2.462863099994138, 2.6609129999997094]",84.6553121,None,84.6553121,None,1,RQSV,84.6553121,None,,,,,,,,,,,,,,,,,,,,,,,,,,,,,,,,,,,,,,,,,,,,,,,,,,,,,,,,,,,,,,,,,,,,,,,,,,,,,,,,,,,,,,,,,,,,,,,,,,,,,,,,,,S3,1,2019_Nov_19_1106,test_final,3.1.5,60.18860702
,,,,6,0,6,0,1,0,1,0,,,,,,,,,,,,,,,,,,,,,,,,,,,,,,,,,,,,,,,89.1843193,None,,,,,,,,,,,,,,,,,,,,,,,,,,,,,,,,,,,,,,,,,,,,,,,,,,,,,,,,,,,,,,,,,,,,,,,,,,,,,,,,,,,,,,,,,,,,,,,,,,,,,,,,,,,,,,,,,,,,,S3,1,2019_Nov_19_1106,test_final,3.1.5,60.18860702
,,,,6,0,6,0,2,0,2,0,,,,,,,,,,,,,,,,,,,,,,,,,,,,,,,,,,,,,,,90.4829029,None,,,,,,,,,,,,,,,,,,,,,,,,,,,,,,,,,,,,,,,,,,,,,,,,,,,,,,,,,,,,,,,,,,,,,,,,,,,,,,,,,,,,,,,,,,,,,,,,,,,,,,,,,,,,,,,,,,,,,S3,1,2019_Nov_19_1106,test_final,3.1.5,60.18860702
,,,,6,0,6,0,3,0,3,0,,,,,,,,,,,,,,,,,,,,,,,,,,,,,,,,,,,,,,,91.7818238,None,,,,,,,,,,,,,,,,,,,,,,,,,,,,,,,,,,,,,,,,,,,,,,,,,,,,,,,,,,,,,,,,,,,,,,,,,,,,,,,,,,,,,,,,,,,,,,,,,,,,,,,,,,,,,,,,,,,,,S3,1,2019_Nov_19_1106,test_final,3.1.5,60.18860702
,,,,6,0,6,0,4,0,4,0,,,,,,,,,,,,,,,,,,,,,,,,,,,,,,,,,,,,,,,93.0805471,None,,,,,,,,,,,,,,,,,,,,,,,,,,,,,,,,,,,,,,,,,,,,,,,,,,,,,,,,,,,,,,,,,,,,,,,,,,,,,,,,,,,,,,,,,,,,,,,,,,,,,,,,,,,,,,,,,,,,,S3,1,2019_Nov_19_1106,test_final,3.1.5,60.18860702
,,,,7,0,7,0,0,0,0,0,,,,,,,,,,,,,,,,,,,,,,,,,,,,,,,,,,,,,,,97.7093053,None,ltvzj,"['l', 't', 'v', 'z', 'j']","[1.0106551999924704, 1.5163899999897694, 1.8173498999967705, 2.1786511999962386, 2.6030350999935763, 2.7795784999907482]",94.3791179,None,94.3791179,None,1,LTVZJ,94.3791179,None,,,,,,,,,,,,,,,,,,,,,,,,,,,,,,,,,,,,,,,,,,,,,,,,,,,,,,,,,,,,,,,,,,,,,,,,,,,,,,,,,,,,,,,,,,,,,,,,,,,,,,,,,,S3,1,2019_Nov_19_1106,test_final,3.1.5,60.18860702
,,,,7,0,7,0,1,0,1,0,,,,,,,,,,,,,,,,,,,,,,,,,,,,,,,,,,,,,,,99.007687,98.4928929,,,,,,,,,,,,,,,,,,,,,,,,,,,,,,,,,,,,,,,,,,,,,,,,,,,,,,,,,,,,,,,,,,,,,,,,,,,,,,,,,,,,,,,,,,,,,,,,,,,,,,,,,,,,,,,,,,,,,S3,1,2019_Nov_19_1106,test_final,3.1.5,60.18860702
,,,,7,0,7,0,2,0,2,0,,,,,,,,,,,,,,,,,,,,,,,,,,,,,,,,,,,,,,,100.3065098,99.797826,,,,,,,,,,,,,,,,,,,,,,,,,,,,,,,,,,,,,,,,,,,,,,,,,,,,,,,,,,,,,,,,,,,,,,,,,,,,,,,,,,,,,,,,,,,,,,,,,,,,,,,,,,,,,,,,,,,,,S3,1,2019_Nov_19_1106,test_final,3.1.5,60.18860702
,,,,7,0,7,0,3,0,3,0,,,,,,,,,,,,,,,,,,,,,,,,,,,,,,,,,,,,,,,101.6054471,101.0903948,,,,,,,,,,,,,,,,,,,,,,,,,,,,,,,,,,,,,,,,,,,,,,,,,,,,,,,,,,,,,,,,,,,,,,,,,,,,,,,,,,,,,,,,,,,,,,,,,,,,,,,,,,,,,,,,,,,,,S3,1,2019_Nov_19_1106,test_final,3.1.5,60.18860702
,,,,7,0,7,0,4,0,4,0,,,,,,,,,,,,,,,,,,,,,,,,,,,,,,,,,,,,,,,102.9040144,102.3887586,,,,,,,,,,,,,,,,,,,,,,,,,,,,,,,,,,,,,,,,,,,,,,,,,,,,,,,,,,,,,,,,,,,,,,,,,,,,,,,,,,,,,,,,,,,,,,,,,,,,,,,,,,,,,,,,,,,,,S3,1,2019_Nov_19_1106,test_final,3.1.5,60.18860702
,,,,8,0,8,0,0,0,0,0,,,,,,,,,,,,,,,,,,,,,,,,,,,,,,,,,,,,,,,108.9979879,None,qlhsn,"['q', 'l', 'h', 's', 'n']","[1.3981960999954026, 2.6497285999939777, 3.1584669000003487, 3.647588399995584, 4.0159733000036795, 4.242990099999588]",104.202788,None,104.202788,None,1,QLHSN,104.202788,None,,,,,,,,,,,,,,,,,,,,,,,,,,,,,,,,,,,,,,,,,,,,,,,,,,,,,,,,,,,,,,,,,,,,,,,,,,,,,,,,,,,,,,,,,,,,,,,,,,,,,,,,,,S3,1,2019_Nov_19_1106,test_final,3.1.5,60.18860702
,,,,8,0,8,0,1,0,1,0,,,,,,,,,,,,,,,,,,,,,,,,,,,,,,,,,,,,,,,110.3131079,None,,,,,,,,,,,,,,,,,,,,,,,,,,,,,,,,,,,,,,,,,,,,,,,,,,,,,,,,,,,,,,,,,,,,,,,,,,,,,,,,,,,,,,,,,,,,,,,,,,,,,,,,,,,,,,,,,,,,,S3,1,2019_Nov_19_1106,test_final,3.1.5,60.18860702
,,,,8,0,8,0,2,0,2,0,,,,,,,,,,,,,,,,,,,,,,,,,,,,,,,,,,,,,,,111.6121891,None,,,,,,,,,,,,,,,,,,,,,,,,,,,,,,,,,,,,,,,,,,,,,,,,,,,,,,,,,,,,,,,,,,,,,,,,,,,,,,,,,,,,,,,,,,,,,,,,,,,,,,,,,,,,,,,,,,,,,S3,1,2019_Nov_19_1106,test_final,3.1.5,60.18860702
,,,,8,0,8,0,3,0,3,0,,,,,,,,,,,,,,,,,,,,,,,,,,,,,,,,,,,,,,,112.9111318,None,,,,,,,,,,,,,,,,,,,,,,,,,,,,,,,,,,,,,,,,,,,,,,,,,,,,,,,,,,,,,,,,,,,,,,,,,,,,,,,,,,,,,,,,,,,,,,,,,,,,,,,,,,,,,,,,,,,,,S3,1,2019_Nov_19_1106,test_final,3.1.5,60.18860702
,,,,8,0,8,0,4,0,4,0,,,,,,,,,,,,,,,,,,,,,,,,,,,,,,,,,,,,,,,114.2096857,None,,,,,,,,,,,,,,,,,,,,,,,,,,,,,,,,,,,,,,,,,,,,,,,,,,,,,,,,,,,,,,,,,,,,,,,,,,,,,,,,,,,,,,,,,,,,,,,,,,,,,,,,,,,,,,,,,,,,,S3,1,2019_Nov_19_1106,test_final,3.1.5,60.18860702
,,,,8,0,8,0,5,0,5,0,,,,,,,,,,,,,,,,,,,,,,,,,,,,,,,,,,,,,,,115.5076881,None,,,,,,,,,,,,,,,,,,,,,,,,,,,,,,,,,,,,,,,,,,,,,,,,,,,,,,,,,,,,,,,,,,,,,,,,,,,,,,,,,,,,,,,,,,,,,,,,,,,,,,,,,,,,,,,,,,,,,S3,1,2019_Nov_19_1106,test_final,3.1.5,60.18860702
,,,,9,0,9,0,0,0,0,0,,,,,,,,,,,,,,,,,,,,,,,,,,,,,,,,,,,,,,,129.0450972,None,sjqxth,"['s', 'j', 'q', 'x', 't', 'h']","[1.8183222000079695, 2.677004900004249, 3.9439322000107495, 5.352589700007229, 5.762130700008129, 5.947187300000223, 6.499666600007913, 6.825012200002675, 7.935509800008731, 8.094783300010022, 8.242960400006268, 8.546916699997382, 9.010139500009245, 9.231936199998017, 10.24319110000215, 10.804103200003738, 11.37019240000518, 11.67485989999841]",116.8072709,None,116.8072709,None,1,SJQXTH,116.8072709,None,,,,,,,,,,,,,,,,,,,,,,,,,,,,,,,,,,,,,,,,,,,,,,,,,,,,,,,,,,,,,,,,,,,,,,,,,,,,,,,,,,,,,,,,,,,,,,,,,,,,,,,,,,S3,1,2019_Nov_19_1106,test_final,3.1.5,60.18860702
,,,,9,0,9,0,1,0,1,0,,,,,,,,,,,,,,,,,,,,,,,,,,,,,,,,,,,,,,,130.3439769,129.8275018,,,,,,,,,,,,,,,,,,,,,,,,,,,,,,,,,,,,,,,,,,,,,,,,,,,,,,,,,,,,,,,,,,,,,,,,,,,,,,,,,,,,,,,,,,,,,,,,,,,,,,,,,,,,,,,,,,,,,S3,1,2019_Nov_19_1106,test_final,3.1.5,60.18860702
,,,,9,0,9,0,2,0,2,0,,,,,,,,,,,,,,,,,,,,,,,,,,,,,,,,,,,,,,,131.6421641,131.1262222,,,,,,,,,,,,,,,,,,,,,,,,,,,,,,,,,,,,,,,,,,,,,,,,,,,,,,,,,,,,,,,,,,,,,,,,,,,,,,,,,,,,,,,,,,,,,,,,,,,,,,,,,,,,,,,,,,,,,S3,1,2019_Nov_19_1106,test_final,3.1.5,60.18860702
,,,,9,0,9,0,3,0,3,0,,,,,,,,,,,,,,,,,,,,,,,,,,,,,,,,,,,,,,,132.9412786,132.425718,,,,,,,,,,,,,,,,,,,,,,,,,,,,,,,,,,,,,,,,,,,,,,,,,,,,,,,,,,,,,,,,,,,,,,,,,,,,,,,,,,,,,,,,,,,,,,,,,,,,,,,,,,,,,,,,,,,,,S3,1,2019_Nov_19_1106,test_final,3.1.5,60.18860702
,,,,9,0,9,0,4,0,4,0,,,,,,,,,,,,,,,,,,,,,,,,,,,,,,,,,,,,,,,134.2401463,133.7235049,,,,,,,,,,,,,,,,,,,,,,,,,,,,,,,,,,,,,,,,,,,,,,,,,,,,,,,,,,,,,,,,,,,,,,,,,,,,,,,,,,,,,,,,,,,,,,,,,,,,,,,,,,,,,,,,,,,,,S3,1,2019_Nov_19_1106,test_final,3.1.5,60.18860702
,,,,9,0,9,0,5,0,5,0,,,,,,,,,,,,,,,,,,,,,,,,,,,,,,,,,,,,,,,135.5389705,135.0224064,,,,,,,,,,,,,,,,,,,,,,,,,,,,,,,,,,,,,,,,,,,,,,,,,,,,,,,,,,,,,,,,,,,,,,,,,,,,,,,,,,,,,,,,,,,,,,,,,,,,,,,,,,,,,,,,,,,,,S3,1,2019_Nov_19_1106,test_final,3.1.5,60.18860702
,,,,10,0,10,0,0,0,0,0,,,,,,,,,,,,,,,,,,,,,,,,,,,,,,,,,,,,,,,141.9824022,None,vskstz,"['v', 's', 'k', 's', 't', 'z']","[1.1042802999872947, 1.7307001999870408, 2.3573767999914708, 3.1172256999998353, 3.7068776999949478, 4.176849299998139, 4.585047299988219]",136.8378508,None,136.8378508,None,0,VSJHQZ,136.8378508,None,,,,,,,,,,,,,,,,,,,,,,,,,,,,,,,,,,,,,,,,,,,,,,,,,,,,,,,,,,,,,,,,,,,,,,,,,,,,,,,,,,,,,,,,,,,,,,,,,,,,,,,,,,S3,1,2019_Nov_19_1106,test_final,3.1.5,60.18860702
,,,,10,0,10,0,1,0,1,0,,,,,,,,,,,,,,,,,,,,,,,,,,,,,,,,,,,,,,,143.2979937,None,,,,,,,,,,,,,,,,,,,,,,,,,,,,,,,,,,,,,,,,,,,,,,,,,,,,,,,,,,,,,,,,,,,,,,,,,,,,,,,,,,,,,,,,,,,,,,,,,,,,,,,,,,,,,,,,,,,,,S3,1,2019_Nov_19_1106,test_final,3.1.5,60.18860702
,,,,10,0,10,0,2,0,2,0,,,,,,,,,,,,,,,,,,,,,,,,,,,,,,,,,,,,,,,144.5965435,None,,,,,,,,,,,,,,,,,,,,,,,,,,,,,,,,,,,,,,,,,,,,,,,,,,,,,,,,,,,,,,,,,,,,,,,,,,,,,,,,,,,,,,,,,,,,,,,,,,,,,,,,,,,,,,,,,,,,,S3,1,2019_Nov_19_1106,test_final,3.1.5,60.18860702
,,,,10,0,10,0,3,0,3,0,,,,,,,,,,,,,,,,,,,,,,,,,,,,,,,,,,,,,,,145.8955208,None,,,,,,,,,,,,,,,,,,,,,,,,,,,,,,,,,,,,,,,,,,,,,,,,,,,,,,,,,,,,,,,,,,,,,,,,,,,,,,,,,,,,,,,,,,,,,,,,,,,,,,,,,,,,,,,,,,,,,S3,1,2019_Nov_19_1106,test_final,3.1.5,60.18860702
,,,,10,0,10,0,4,0,4,0,,,,,,,,,,,,,,,,,,,,,,,,,,,,,,,,,,,,,,,147.1942197,None,,,,,,,,,,,,,,,,,,,,,,,,,,,,,,,,,,,,,,,,,,,,,,,,,,,,,,,,,,,,,,,,,,,,,,,,,,,,,,,,,,,,,,,,,,,,,,,,,,,,,,,,,,,,,,,,,,,,,S3,1,2019_Nov_19_1106,test_final,3.1.5,60.18860702
,,,,10,0,10,0,5,0,5,0,,,,,,,,,,,,,,,,,,,,,,,,,,,,,,,,,,,,,,,148.4928253,None,,,,,,,,,,,,,,,,,,,,,,,,,,,,,,,,,,,,,,,,,,,,,,,,,,,,,,,,,,,,,,,,,,,,,,,,,,,,,,,,,,,,,,,,,,,,,,,,,,,,,,,,,,,,,,,,,,,,,S3,1,2019_Nov_19_1106,test_final,3.1.5,60.18860702
,,,,11,0,11,0,0,0,0,0,,,,,,,,,,,,,,,,,,,,,,,,,,,,,,,,,,,,,,,156.4682435,None,rghvsk,"['r', 'g', 'h', 'v', 's', 'k']","[2.965626000004704, 4.352868200003286, 4.650610700002289, 5.302845900005195, 5.552479100006167, 5.906099800005904, 6.127290900010848]",149.7915947,None,149.7915947,None,0,RJHVSK,149.7915947,None,,,,,,,,,,,,,,,,,,,,,,,,,,,,,,,,,,,,,,,,,,,,,,,,,,,,,,,,,,,,,,,,,,,,,,,,,,,,,,,,,,,,,,,,,,,,,,,,,,,,,,,,,,S3,1,2019_Nov_19_1106,test_final,3.1.5,60.18860702
,,,,11,0,11,0,1,0,1,0,,,,,,,,,,,,,,,,,,,,,,,,,,,,,,,,,,,,,,,157.7838477,None,,,,,,,,,,,,,,,,,,,,,,,,,,,,,,,,,,,,,,,,,,,,,,,,,,,,,,,,,,,,,,,,,,,,,,,,,,,,,,,,,,,,,,,,,,,,,,,,,,,,,,,,,,,,,,,,,,,,,S3,1,2019_Nov_19_1106,test_final,3.1.5,60.18860702
,,,,11,0,11,0,2,0,2,0,,,,,,,,,,,,,,,,,,,,,,,,,,,,,,,,,,,,,,,159.0824848,None,,,,,,,,,,,,,,,,,,,,,,,,,,,,,,,,,,,,,,,,,,,,,,,,,,,,,,,,,,,,,,,,,,,,,,,,,,,,,,,,,,,,,,,,,,,,,,,,,,,,,,,,,,,,,,,,,,,,,S3,1,2019_Nov_19_1106,test_final,3.1.5,60.18860702
,,,,11,0,11,0,3,0,3,0,,,,,,,,,,,,,,,,,,,,,,,,,,,,,,,,,,,,,,,160.3812071,None,,,,,,,,,,,,,,,,,,,,,,,,,,,,,,,,,,,,,,,,,,,,,,,,,,,,,,,,,,,,,,,,,,,,,,,,,,,,,,,,,,,,,,,,,,,,,,,,,,,,,,,,,,,,,,,,,,,,,S3,1,2019_Nov_19_1106,test_final,3.1.5,60.18860702
,,,,11,0,11,0,4,0,4,0,,,,,,,,,,,,,,,,,,,,,,,,,,,,,,,,,,,,,,,161.6798729,None,,,,,,,,,,,,,,,,,,,,,,,,,,,,,,,,,,,,,,,,,,,,,,,,,,,,,,,,,,,,,,,,,,,,,,,,,,,,,,,,,,,,,,,,,,,,,,,,,,,,,,,,,,,,,,,,,,,,,S3,1,2019_Nov_19_1106,test_final,3.1.5,60.18860702
,,,,11,0,11,0,5,0,5,0,,,,,,,,,,,,,,,,,,,,,,,,,,,,,,,,,,,,,,,162.9786531,None,,,,,,,,,,,,,,,,,,,,,,,,,,,,,,,,,,,,,,,,,,,,,,,,,,,,,,,,,,,,,,,,,,,,,,,,,,,,,,,,,,,,,,,,,,,,,,,,,,,,,,,,,,,,,,,,,,,,,S3,1,2019_Nov_19_1106,test_final,3.1.5,60.18860702
,,,,12,0,12,0,0,0,0,0,,,,,,,,,,,,,,,,,,,,,,,,,,,,,,,,,,,,,,,167.5740534,None,znrqsl,"['z', 'n', 'r', 'q', 's', 'l']","[0.5267309999908321, 0.9481782999937423, 1.3818140999937896, 1.7508456999930786, 2.0433764999907, 2.435743399997591, 2.7335275999939768]",164.2776187,None,164.2776187,None,1,ZNRQSL,164.2776187,None,,,,,,,,,,,,,,,,,,,,,,,,,,,,,,,,,,,,,,,,,,,,,,,,,,,,,,,,,,,,,,,,,,,,,,,,,,,,,,,,,,,,,,,,,,,,,,,,,,,,,,,,,,S3,1,2019_Nov_19_1106,test_final,3.1.5,60.18860702
,,,,12,0,12,0,1,0,1,0,,,,,,,,,,,,,,,,,,,,,,,,,,,,,,,,,,,,,,,168.8893902,None,,,,,,,,,,,,,,,,,,,,,,,,,,,,,,,,,,,,,,,,,,,,,,,,,,,,,,,,,,,,,,,,,,,,,,,,,,,,,,,,,,,,,,,,,,,,,,,,,,,,,,,,,,,,,,,,,,,,,S3,1,2019_Nov_19_1106,test_final,3.1.5,60.18860702
,,,,12,0,12,0,2,0,2,0,,,,,,,,,,,,,,,,,,,,,,,,,,,,,,,,,,,,,,,170.1883708,None,,,,,,,,,,,,,,,,,,,,,,,,,,,,,,,,,,,,,,,,,,,,,,,,,,,,,,,,,,,,,,,,,,,,,,,,,,,,,,,,,,,,,,,,,,,,,,,,,,,,,,,,,,,,,,,,,,,,,S3,1,2019_Nov_19_1106,test_final,3.1.5,60.18860702
,,,,12,0,12,0,3,0,3,0,,,,,,,,,,,,,,,,,,,,,,,,,,,,,,,,,,,,,,,171.4869532,None,,,,,,,,,,,,,,,,,,,,,,,,,,,,,,,,,,,,,,,,,,,,,,,,,,,,,,,,,,,,,,,,,,,,,,,,,,,,,,,,,,,,,,,,,,,,,,,,,,,,,,,,,,,,,,,,,,,,,S3,1,2019_Nov_19_1106,test_final,3.1.5,60.18860702
,,,,12,0,12,0,4,0,4,0,,,,,,,,,,,,,,,,,,,,,,,,,,,,,,,,,,,,,,,172.7857961,None,,,,,,,,,,,,,,,,,,,,,,,,,,,,,,,,,,,,,,,,,,,,,,,,,,,,,,,,,,,,,,,,,,,,,,,,,,,,,,,,,,,,,,,,,,,,,,,,,,,,,,,,,,,,,,,,,,,,,S3,1,2019_Nov_19_1106,test_final,3.1.5,60.18860702
,,,,12,0,12,0,5,0,5,0,,,,,,,,,,,,,,,,,,,,,,,,,,,,,,,,,,,,,,,174.0846052,None,,,,,,,,,,,,,,,,,,,,,,,,,,,,,,,,,,,,,,,,,,,,,,,,,,,,,,,,,,,,,,,,,,,,,,,,,,,,,,,,,,,,,,,,,,,,,,,,,,,,,,,,,,,,,,,,,,,,,S3,1,2019_Nov_19_1106,test_final,3.1.5,60.18860702
,,,,12,0,12,0,6,0,6,0,,,,,,,,,,,,,,,,,,,,,,,,,,,,,,,,,,,,,,,175.3831214,174.8681584,,,,,,,,,,,,,,,,,,,,,,,,,,,,,,,,,,,,,,,,,,,,,,,,,,,,,,,,,,,,,,,,,,,,,,,,,,,,,,,,,,,,,,,,,,,,,,,,,,,,,,,,,,,,,,,,,,,,,S3,1,2019_Nov_19_1106,test_final,3.1.5,60.18860702
,,,,13,0,13,0,0,0,0,0,,,,,,,,,,,,,,,,,,,,,,,,,,,,,,,,,,,,,,,182.4094116,None,xjhntrs,"['x', 'j', 'h', 'n', 't', 'r', 's']","[1.6090037999965716, 2.293170699995244, 2.704240799997933, 3.801843299996108, 4.218137199990451, 4.503893200002494, 4.8247817999945255, 5.165484800003469]",176.68204,None,176.68204,None,0,XJHNTZS,176.68204,None,,,,,,,,,,,,,,,,,,,,,,,,,,,,,,,,,,,,,,,,,,,,,,,,,,,,,,,,,,,,,,,,,,,,,,,,,,,,,,,,,,,,,,,,,,,,,,,,,,,,,,,,,,S3,1,2019_Nov_19_1106,test_final,3.1.5,60.18860702
,,,,13,0,13,0,1,0,1,0,,,,,,,,,,,,,,,,,,,,,,,,,,,,,,,,,,,,,,,183.7247399,None,,,,,,,,,,,,,,,,,,,,,,,,,,,,,,,,,,,,,,,,,,,,,,,,,,,,,,,,,,,,,,,,,,,,,,,,,,,,,,,,,,,,,,,,,,,,,,,,,,,,,,,,,,,,,,,,,,,,,S3,1,2019_Nov_19_1106,test_final,3.1.5,60.18860702
,,,,13,0,13,0,2,0,2,0,,,,,,,,,,,,,,,,,,,,,,,,,,,,,,,,,,,,,,,185.0236566,None,,,,,,,,,,,,,,,,,,,,,,,,,,,,,,,,,,,,,,,,,,,,,,,,,,,,,,,,,,,,,,,,,,,,,,,,,,,,,,,,,,,,,,,,,,,,,,,,,,,,,,,,,,,,,,,,,,,,,S3,1,2019_Nov_19_1106,test_final,3.1.5,60.18860702
,,,,13,0,13,0,3,0,3,0,,,,,,,,,,,,,,,,,,,,,,,,,,,,,,,,,,,,,,,186.3225893,None,,,,,,,,,,,,,,,,,,,,,,,,,,,,,,,,,,,,,,,,,,,,,,,,,,,,,,,,,,,,,,,,,,,,,,,,,,,,,,,,,,,,,,,,,,,,,,,,,,,,,,,,,,,,,,,,,,,,,S3,1,2019_Nov_19_1106,test_final,3.1.5,60.18860702
,,,,13,0,13,0,4,0,4,0,,,,,,,,,,,,,,,,,,,,,,,,,,,,,,,,,,,,,,,187.6211819,None,,,,,,,,,,,,,,,,,,,,,,,,,,,,,,,,,,,,,,,,,,,,,,,,,,,,,,,,,,,,,,,,,,,,,,,,,,,,,,,,,,,,,,,,,,,,,,,,,,,,,,,,,,,,,,,,,,,,,S3,1,2019_Nov_19_1106,test_final,3.1.5,60.18860702
,,,,13,0,13,0,5,0,5,0,,,,,,,,,,,,,,,,,,,,,,,,,,,,,,,,,,,,,,,188.9198749,188.4033644,,,,,,,,,,,,,,,,,,,,,,,,,,,,,,,,,,,,,,,,,,,,,,,,,,,,,,,,,,,,,,,,,,,,,,,,,,,,,,,,,,,,,,,,,,,,,,,,,,,,,,,,,,,,,,,,,,,,,S3,1,2019_Nov_19_1106,test_final,3.1.5,60.18860702
,,,,13,0,13,0,6,0,6,0,,,,,,,,,,,,,,,,,,,,,,,,,,,,,,,,,,,,,,,190.2186621,189.7032207,,,,,,,,,,,,,,,,,,,,,,,,,,,,,,,,,,,,,,,,,,,,,,,,,,,,,,,,,,,,,,,,,,,,,,,,,,,,,,,,,,,,,,,,,,,,,,,,,,,,,,,,,,,,,,,,,,,,,S3,1,2019_Nov_19_1106,test_final,3.1.5,60.18860702
,,,,14,0,14,0,0,0,0,0,,,,,,,,,,,,,,,,,,,,,,,,,,,,,,,,,,,,,,,198.7100517,None,sghnxrj,"['s', 'g', 'h', 'n', 'x', 'r', 'j']","[1.744760400004452, 4.0599041000095895, 4.393461400002707, 4.893432600001688, 5.383906700008083, 6.100372200002312, 6.406681000007666, 6.636738100001821]",191.5173596,None,191.5173596,None,0,KVHNSZT,191.5173596,None,,,,,,,,,,,,,,,,,,,,,,,,,,,,,,,,,,,,,,,,,,,,,,,,,,,,,,,,,,,,,,,,,,,,,,,,,,,,,,,,,,,,,,,,,,,,,,,,,,,,,,,,,,S3,1,2019_Nov_19_1106,test_final,3.1.5,60.18860702
,,,,14,0,14,0,1,0,1,0,,,,,,,,,,,,,,,,,,,,,,,,,,,,,,,,,,,,,,,200.0256058,None,,,,,,,,,,,,,,,,,,,,,,,,,,,,,,,,,,,,,,,,,,,,,,,,,,,,,,,,,,,,,,,,,,,,,,,,,,,,,,,,,,,,,,,,,,,,,,,,,,,,,,,,,,,,,,,,,,,,,S3,1,2019_Nov_19_1106,test_final,3.1.5,60.18860702
,,,,14,0,14,0,2,0,2,0,,,,,,,,,,,,,,,,,,,,,,,,,,,,,,,,,,,,,,,201.3244431,None,,,,,,,,,,,,,,,,,,,,,,,,,,,,,,,,,,,,,,,,,,,,,,,,,,,,,,,,,,,,,,,,,,,,,,,,,,,,,,,,,,,,,,,,,,,,,,,,,,,,,,,,,,,,,,,,,,,,,S3,1,2019_Nov_19_1106,test_final,3.1.5,60.18860702
,,,,14,0,14,0,3,0,3,0,,,,,,,,,,,,,,,,,,,,,,,,,,,,,,,,,,,,,,,202.6231796,None,,,,,,,,,,,,,,,,,,,,,,,,,,,,,,,,,,,,,,,,,,,,,,,,,,,,,,,,,,,,,,,,,,,,,,,,,,,,,,,,,,,,,,,,,,,,,,,,,,,,,,,,,,,,,,,,,,,,,S3,1,2019_Nov_19_1106,test_final,3.1.5,60.18860702
,,,,14,0,14,0,4,0,4,0,,,,,,,,,,,,,,,,,,,,,,,,,,,,,,,,,,,,,,,203.921863,None,,,,,,,,,,,,,,,,,,,,,,,,,,,,,,,,,,,,,,,,,,,,,,,,,,,,,,,,,,,,,,,,,,,,,,,,,,,,,,,,,,,,,,,,,,,,,,,,,,,,,,,,,,,,,,,,,,,,,S3,1,2019_Nov_19_1106,test_final,3.1.5,60.18860702
,,,,14,0,14,0,5,0,5,0,,,,,,,,,,,,,,,,,,,,,,,,,,,,,,,,,,,,,,,205.2207436,None,,,,,,,,,,,,,,,,,,,,,,,,,,,,,,,,,,,,,,,,,,,,,,,,,,,,,,,,,,,,,,,,,,,,,,,,,,,,,,,,,,,,,,,,,,,,,,,,,,,,,,,,,,,,,,,,,,,,,S3,1,2019_Nov_19_1106,test_final,3.1.5,60.18860702
,,,,14,0,14,0,6,0,6,0,,,,,,,,,,,,,,,,,,,,,,,,,,,,,,,,,,,,,,,206.5193711,206.0054796,,,,,,,,,,,,,,,,,,,,,,,,,,,,,,,,,,,,,,,,,,,,,,,,,,,,,,,,,,,,,,,,,,,,,,,,,,,,,,,,,,,,,,,,,,,,,,,,,,,,,,,,,,,,,,,,,,,,,S3,1,2019_Nov_19_1106,test_final,3.1.5,60.18860702
,,,,,,,,,,,,,,,,,,,,,,,,,,,,,,,,,,,,,,,,,,,,,,,,,,,,lqxsnth,"['l', 'q', 'x', 's', 'n', 't', 'h']","[1.6373631000024034, 1.9169192999979714, 2.4366689000016777, 3.8034256999962963, 4.1940417000005255, 4.520399400003953, 4.755717399995774, 5.010479000004125]",207.818244,None,207.818244,None,0,LQXSNTK,207.818244,None,213.3792973,None,space,4.7189293,213.3792973,None,,,,,,,,,,,,,,,,,,,,,,,,,,,,,,,,,,,,,,,,,,,,,,,,,,,,,,,,,,,,,,,,,,,,,,,,,,,,,,,,,,,,,,,,,,,,,,,,,,,,S3,1,2019_Nov_19_1106,test_final,3.1.5,60.18860702
Practice,10,(8/4) + 3,5,,,,,,,,,0,0,0,0,0,0,0,9,,,,,,,,,,,,,,,,,,,,,,,,,,,,,,,,,,,,,,,,,,,,,,,,,,5,218.7068653,None,['5'],0,[3.349159300007159],218.7068653,None,218.7068653,None,[3.349159300007159],218.7068653,None,222.5871433,None,,,,,,,,,,,,,,,,,,,,,,,,,,,,,,,,,,,,,,,,,,,,,,,,,,,,,,,,,,,,,,,,,,,,,,,,,,,,,,,,,,,,,S3,1,2019_Nov_19_1106,test_final,3.1.5,60.18860702
Practice,7,(4x6) - 17,7,,,,,,,,,0,0,0,0,0,1,1,6,,,,,,,,,,,,,,,,,,,,,,,,,,,,,,,,,,,,,,,,,,,,,,,,,,7,224.1024475,None,['7'],0,[5.099490699998569],224.1024475,None,224.1024475,None,"[3.349159300007159, 5.099490699998569]",224.1024475,None,229.7465925,None,,,,,,,,,,,,,,,,,,,,,,,,,,,,,,,,,,,,,,,,,,,,,,,,,,,,,,,,,,,,,,,,,,,,,,,,,,,,,,,,,,,,,S3,1,2019_Nov_19_1106,test_final,3.1.5,60.18860702
Practice,15,(9/3) - 2,1,,,,,,,,,0,0,0,0,0,2,2,14,,,,,,,,,,,,,,,,,,,,,,,,,,,,,,,,,,,,,,,,,,,,,,,,,,1,231.2447297,None,['1'],0,[1.8796319999964908],231.2447297,None,231.2447297,None,"[3.349159300007159, 5.099490699998569, 1.8796319999964908]",231.2447297,None,233.6593716,None,,,,,,,,,,,,,,,,,,,,,,,,,,,,,,,,,,,,,,,,,,,,,,,,,,,,,,,,,,,,,,,,,,,,,,,,,,,,,,,,,,,,,S3,1,2019_Nov_19_1106,test_final,3.1.5,60.18860702
Practice,4,(4x4) - 14,2,,,,,,,,,0,0,0,0,0,3,3,3,,,,,,,,,,,,,,,,,,,,,,,,,,,,,,,,,,,,,,,,,,,,,,,,,,2,235.1581384,None,['2'],0,[1.383560000002035],235.1581384,None,235.1581384,None,"[3.349159300007159, 5.099490699998569, 1.8796319999964908, 1.383560000002035]",235.1581384,None,237.0895071,None,,,,,,,,,,,,,,,,,,,,,,,,,,,,,,,,,,,,,,,,,,,,,,,,,,,,,,,,,,,,,,,,,,,,,,,,,,,,,,,,,,,,,S3,1,2019_Nov_19_1106,test_final,3.1.5,60.18860702
Practice,12,(8/2) + 4,8,,,,,,,,,0,0,0,0,0,4,4,11,,,,,,,,,,,,,,,,,,,,,,,,,,,,,,,,,,,,,,,,,,,,,,,,,,8,238.5880985,None,['8'],0,[1.81985590000113],238.5880985,None,238.5880985,None,"[3.349159300007159, 5.099490699998569, 1.8796319999964908, 1.383560000002035, 1.81985590000113]",238.5880985,None,240.9526397,None,,,,,,,,,,,,,,,,,,,,,,,,,,,,,,,,,,,,,,,,,,,,,,,,,,,,,,,,,,,,,,,,,,,,,,,,,,,,,,,,,,,,,S3,1,2019_Nov_19_1106,test_final,3.1.5,60.18860702
Practice,13,(3x8) - 19 ,5,,,,,,,,,0,0,0,0,0,5,5,12,,,,,,,,,,,,,,,,,,,,,,,,,,,,,,,,,,,,,,,,,,,,,,,,,,5,242.4506275,None,['5'],0,[2.913106499996502],242.4506275,None,242.4506275,None,"[3.349159300007159, 5.099490699998569, 1.8796319999964908, 1.383560000002035, 1.81985590000113, 2.913106499996502]",242.4506275,None,245.8975718,None,,,,,,,,,,,,,,,,,,,,,,,,,,,,,,,,,,,,,,,,,,,,,,,,,,,,,,,,,,,,,,,,,,,,,,,,,,,,,,,,,,,,,S3,1,2019_Nov_19_1106,test_final,3.1.5,60.18860702
Practice,11,(5x3) - 7,8,,,,,,,,,0,0,0,0,0,6,6,10,,,,,,,,,,,,,,,,,,,,,,,,,,,,,,,,,,,,,,,,,,,,,,,,,,8,247.3957971,None,['8'],0,[1.910633899999084],247.3957971,None,247.3957971,None,"[3.349159300007159, 5.099490699998569, 1.8796319999964908, 1.383560000002035, 1.81985590000113, 2.913106499996502, 1.910633899999084]",247.3957971,None,249.8436594,None,,,,,,,,,,,,,,,,,,,,,,,,,,,,,,,,,,,,,,,,,,,,,,,,,,,,,,,,,,,,,,,,,,,,,,,,,,,,,,,,,,,,,S3,1,2019_Nov_19_1106,test_final,3.1.5,60.18860702
Practice,3,(7x2) - 5,9,,,,,,,,,0,0,0,0,0,7,7,2,,,,,,,,,,,,,,,,,,,,,,,,,,,,,,,,,,,,,,,,,,,,,,,,,,9,251.3421212,None,['9'],0,[2.526488200004678],251.3421212,None,251.3421212,None,"[3.349159300007159, 5.099490699998569, 1.8796319999964908, 1.383560000002035, 1.81985590000113, 2.913106499996502, 1.910633899999084, 2.526488200004678]",251.3421212,None,254.4058337,None,,,,,,,,,,,,,,,,,,,,,,,,,,,,,,,,,,,,,,,,,,,,,,,,,,,,,,,,,,,,,,,,,,,,,,,,,,,,,,,,,,,,,S3,1,2019_Nov_19_1106,test_final,3.1.5,60.18860702
Practice,6,(2x6) - 8,4,,,,,,,,,0,0,0,0,0,8,8,5,,,,,,,,,,,,,,,,,,,,,,,,,,,,,,,,,,,,,,,,,,,,,,,,,,4,255.9043665,None,['4'],0,[1.6239104999986012],255.9043665,None,255.9043665,None,"[3.349159300007159, 5.099490699998569, 1.8796319999964908, 1.383560000002035, 1.81985590000113, 2.913106499996502, 1.910633899999084, 2.526488200004678, 1.6239104999986012]",255.9043665,None,258.0686793,None,,,,,,,,,,,,,,,,,,,,,,,,,,,,,,,,,,,,,,,,,,,,,,,,,,,,,,,,,,,,,,,,,,,,,,,,,,,,,,,,,,,,,S3,1,2019_Nov_19_1106,test_final,3.1.5,60.18860702
Practice,5,(3/3) + 2,3,,,,,,,,,0,0,0,0,0,9,9,4,,,,,,,,,,,,,,,,,,,,,,,,,,,,,,,,,,,,,,,,,,,,,,,,,,3,259.5673716,None,['3'],0,[3.535778300007223],259.5673716,None,259.5673716,None,"[3.349159300007159, 5.099490699998569, 1.8796319999964908, 1.383560000002035, 1.81985590000113, 2.913106499996502, 1.910633899999084, 2.526488200004678, 1.6239104999986012, 3.535778300007223]",259.5673716,None,263.6467874,None,,,,,,,,,,,,,,,,,,,,,,,,,,,,,,,,,,,,,,,,,,,,,,,,,,,,,,,,,,,,,,,,,,,,,,,,,,,,,,,,,,,,,S3,1,2019_Nov_19_1106,test_final,3.1.5,60.18860702
Practice,2,(1/1) - 1,0,,,,,,,,,0,0,0,0,0,10,10,1,,,,,,,,,,,,,,,,,,,,,,,,,,,,,,,,,,,,,,,,,,,,,,,,,,0,265.1453462,None,['0'],0,[2.4888523000117857],265.1453462,None,265.1453462,None,"[3.349159300007159, 5.099490699998569, 1.8796319999964908, 1.383560000002035, 1.81985590000113, 2.913106499996502, 1.910633899999084, 2.526488200004678, 1.6239104999986012, 3.535778300007223, 2.4888523000117857]",265.1453462,None,268.1756706,None,,,,,,,,,,,,,,,,,,,,,,,,,,,,,,,,,,,,,,,,,,,,,,,,,,,,,,,,,,,,,,,,,,,,,,,,,,,,,,,,,,,,,S3,1,2019_Nov_19_1106,test_final,3.1.5,60.18860702
Practice,9,(4/2) + 5,7,,,,,,,,,0,0,0,0,0,11,11,8,,,,,,,,,,,,,,,,,,,,,,,,,,,,,,,,,,,,,,,,,,,,,,,,,,7,269.6743444,None,['7'],0,[2.2142236000072444],269.6743444,None,269.6743444,None,"[3.349159300007159, 5.099490699998569, 1.8796319999964908, 1.383560000002035, 1.81985590000113, 2.913106499996502, 1.910633899999084, 2.526488200004678, 1.6239104999986012, 3.535778300007223, 2.4888523000117857, 2.2142236000072444]",269.6743444,None,272.4216743,None,,,,,,,,,,,,,,,,,,,,,,,,,,,,,,,,,,,,,,,,,,,,,,,,,,,,,,,,,,,,,,,,,,,,,,,,,,,,,,,,,,,,,S3,1,2019_Nov_19_1106,test_final,3.1.5,60.18860702
Practice,1,(1x2) + 1,3,,,,,,,,,0,0,0,0,0,12,12,0,,,,,,,,,,,,,,,,,,,,,,,,,,,,,,,,,,,,,,,,,,,,,,,,,,3,273.920185,None,['3'],0,[1.654215499991551],273.920185,None,273.920185,None,"[3.349159300007159, 5.099490699998569, 1.8796319999964908, 1.383560000002035, 1.81985590000113, 2.913106499996502, 1.910633899999084, 2.526488200004678, 1.6239104999986012, 3.535778300007223, 2.4888523000117857, 2.2142236000072444, 1.654215499991551]",273.920185,None,276.1177079,None,,,,,,,,,,,,,,,,,,,,,,,,,,,,,,,,,,,,,,,,,,,,,,,,,,,,,,,,,,,,,,,,,,,,,,,,,,,,,,,,,,,,,S3,1,2019_Nov_19_1106,test_final,3.1.5,60.18860702
Practice,8,(3/3) + 5,6,,,,,,,,,0,0,0,0,0,13,13,7,,,,,,,,,,,,,,,,,,,,,,,,,,,,,,,,,,,,,,,,,,,,,,,,,,6,277.6164159,None,['6'],0,[2.222649099989212],277.6164159,None,277.6164159,None,"[3.349159300007159, 5.099490699998569, 1.8796319999964908, 1.383560000002035, 1.81985590000113, 2.913106499996502, 1.910633899999084, 2.526488200004678, 1.6239104999986012, 3.535778300007223, 2.4888523000117857, 2.2142236000072444, 1.654215499991551, 2.222649099989212]",277.6164159,None,280.3803704,None,,,,,,,,,,,,,,,,,,,,,,,,,,,,,,,,,,,,,,,,,,,,,,,,,,,,,,,,,,,,,,,,,,,,,,,,,,,,,,,,,,,,,S3,1,2019_Nov_19_1106,test_final,3.1.5,60.18860702
Practice,14,(6/3) + 4 ,6,,,,,,,,,0,0,0,0,0,14,14,13,,,,,,,,,,,,,,,,,,,,,,,,,,,,,,,,,,,,,,,,,,,,,,,,,,6,281.8789099,None,['6'],0,[1.7914325000019744],281.8789099,None,281.8789099,None,"[3.349159300007159, 5.099490699998569, 1.8796319999964908, 1.383560000002035, 1.81985590000113, 2.913106499996502, 1.910633899999084, 2.526488200004678, 1.6239104999986012, 3.535778300007223, 2.4888523000117857, 2.2142236000072444, 1.654215499991551, 2.222649099989212, 1.7914325000019744]",281.8789099,None,284.2101188,None,,,,,,,,,,,,,,,,,,,,,,,,,,,,,,,,,,,,,,,,,,,,,,,,,,,,,,,,,,,,,,,,,,,,,,,,,,,,,,,,,,,,,S3,1,2019_Nov_19_1106,test_final,3.1.5,60.18860702
,,,,,,,,,,,,0,0,0,0,,,,,,,,,,,,,,,,,,,,,,,,,,,,,,,,,,,,,,,,,,,,,,,,,,,,,,,,,,,,,,,,,,,,,1,36.4129883,2.427532553,13.22875695,0.93910443,4.850421982,285.7087555,None,space,2.5191871,285.7087555,None,,,,,,,,,,,,,,,,,,,,,,,,,,,,,,,,,,,,,,,,,,,,,,,,,,,,,,,,,,,,,,,,,,,,,,,,,S3,1,2019_Nov_19_1106,test_final,3.1.5,60.18860702
,,,,,,,,,,,,,,,,,,,,,,,,,,,,,,,,,,,,,,,,,,,,,,,,,,,,,,,,,,,,,,,,,,,,,,,,,,,,,,,,,,,,,,,,,,,,,,,,288.7888475,None,space,14.0775641,288.7888475,None,,,,,,,,,,,,,,,,,,,,,,,,,,,,,,,,,,,,,,,,,,,,,,,,,,,,,,,,,,,,,,,,,,,S3,1,2019_Nov_19_1106,test_final,3.1.5,60.18860702
Practice,11,(5x3) - 7,8,,,,,,,,,,,,,,,,,0,0,0,0,0,0,0,0,0,0,0,10,,,,,,,,,,,,,,,,,,,,,,,,,,,,,,,,,,,,,,8,,,,,,,,,,,,,,,,,,,,,,,,,,,,,,,,,303.4580922,None,['8'],0,[1.7266732999996748],303.4580922,None,303.4580922,None,303.4580922,None,1,305.2802542,None,305.2802542,None,,,,,,,,,,,,,,,,,,,,,,,,,,,,,,,,,,,,,,,,,,,,,,,,,,,S3,1,2019_Nov_19_1106,test_final,3.1.5,60.18860702
,,,,,,,,,,,,,,,,,,,,0,0,0,0,0,0,0,0,,,,,,,,,,,,,,,,,,,,,,,,,,,,,,,,,,,,,,,,,,,,,,,,,,,,,,,,,,,,,,,,,,,,,,,,,,,,,,,,,,,,,,,,,,,306.6214611,None,,,,,,,,,,,,,,,,,,,,,,,,,,,,,,,,,,,,,,,,,,,,,,,,,S3,1,2019_Nov_19_1106,test_final,3.1.5,60.18860702
Practice,12,(8/2) + 4,8,,,,,,,,,,,,,,,,,0,0,0,0,1,0,1,0,0,0,0,11,,,,,,,,,,,,,,,,,,,,,,,,,,,,,,,,,,,,,,8,,,,,,,,,,,,,,,,,,,,,,,,,,,,,,,,,307.9201175,None,['8'],0,[4.0875078000099165],307.9201175,None,307.9201175,None,307.9201175,None,1,312.0983002,None,312.0983002,None,,,,,,,,,,,,,,,,,,,,,,,,,,,,,,,,,,,,,,,,,,,,,,,,,,,S3,1,2019_Nov_19_1106,test_final,3.1.5,60.18860702
,,,,,,,,,,,,,,,,,,,,0,0,0,0,1,0,1,0,,,,,,,,,,,,,,,,,,,,,,,,,,,,,,,,,,,,,,,,,,,,,,,,,,,,,,,,,,,,,,,,,,,,,,,,,,,,,,,,,,,,,,,,,,,313.4316423,None,,,,,,,,,,,,,,,,,,,,,,,,,,,,,,,,,,,,,,,,,,,,,,,,,S3,1,2019_Nov_19_1106,test_final,3.1.5,60.18860702
,,,,,,,,,,,,,,,,,,,,0,0,0,0,,,,,,,,,,,,,,,,,,,,,,,,,,,,,,,,,,,,,,,,,,,,,,,,,,,,,,,,,,,,,,,,,,,,,,,,,,,,,,,,,,,,,,,,,,,,,,,,,1,['1'],0,"[5.899488099996233, 6.119774299993878]",314.7303088,None,314.7303088,None,314.7303088,None,0,321.4068879,None,,,,,,,,,,,,,,,,,,,,,,,,,,,,,,,,,,,,S3,1,2019_Nov_19_1106,test_final,3.1.5,60.18860702
Practice,7,(4x6) - 17,7,,,,,,,,,,,,,,,,,1,0,1,0,0,0,0,0,0,0,0,6,,,,,,,,,,,,,,,,,,,,,,,,,,,,,,,,,,,,,,,,,,,,,,,,,,,,,,,,,,,,,,,,,,,,,,,322.93885,None,None,0,,322.93885,None,322.93885,None,322.93885,None,0,327.8568396,None,327.8568396,None,,,,,,,,,,,,,,,,,,,,,,,,,,,,,,,,,,,,,,,,,,,,,,,,,,,S3,1,2019_Nov_19_1106,test_final,3.1.5,60.18860702
Practice,11,(5x3) - 7,8,,,,,,,,,,,,,,,,,1,0,1,0,0,0,0,0,0,1,1,10,,,,,,,,,,,,,,,,,,,,,,,,,,,,,,,,,,,,,,7,,,,,,,,,,,,,,,,,,,,,,,,,,,,,,,,,329.1991828,None,['7'],0,[2.244430699996883],329.1991828,None,329.1991828,None,329.1991828,None,0,331.5214127,None,331.5214127,None,,,,,,,,,,,,,,,,,,,,,,,,,,,,,,,,,,,,,,,,,,,,,,,,,,,S3,1,2019_Nov_19_1106,test_final,3.1.5,60.18860702
Practice,2,(1/1) - 1,0,,,,,,,,,,,,,,,,,1,0,1,0,0,0,0,0,0,2,2,1,,,,,,,,,,,,,,,,,,,,,,,,,,,,,,,,,,,,,,0,,,,,,,,,,,,,,,,,,,,,,,,,,,,,,,,,332.8457191,None,['0'],0,[2.049327300002915],332.8457191,None,332.8457191,None,332.8457191,None,1,334.9594489,None,334.9594489,None,,,,,,,,,,,,,,,,,,,,,,,,,,,,,,,,,,,,,,,,,,,,,,,,,,,S3,1,2019_Nov_19_1106,test_final,3.1.5,60.18860702
,,,,,,,,,,,,,,,,,,,,1,0,1,0,0,0,0,0,,,,,,,,,,,,,,,,,,,,,,,,,,,,,,,,,,,,,,,,,,,,,,,,,,,,,,,,,,,,,,,,,,,,,,,,,,,,,,,,,,,,,,,,,,,336.2758279,None,,,,,,,,,,,,,,,,,,,,,,,,,,,,,,,,,,,,,,,,,,,,,,,,,S3,1,2019_Nov_19_1106,test_final,3.1.5,60.18860702
Practice,7,(4x6) - 17,7,,,,,,,,,,,,,,,,,1,0,1,0,1,0,1,0,0,0,0,6,,,,,,,,,,,,,,,,,,,,,,,,,,,,,,,,,,,,,,7,,,,,,,,,,,,,,,,,,,,,,,,,,,,,,,,,337.6077213,None,['7'],0,[4.228741400002036],337.6077213,None,337.6077213,None,337.6077213,None,1,341.9297141,None,341.9297141,None,,,,,,,,,,,,,,,,,,,,,,,,,,,,,,,,,,,,,,,,,,,,,,,,,,,S3,1,2019_Nov_19_1106,test_final,3.1.5,60.18860702
,,,,,,,,,,,,,,,,,,,,1,0,1,0,1,0,1,0,,,,,,,,,,,,,,,,,,,,,,,,,,,,,,,,,,,,,,,,,,,,,,,,,,,,,,,,,,,,,,,,,,,,,,,,,,,,,,,,,,,,,,,,,,,343.2688205,None,,,,,,,,,,,,,,,,,,,,,,,,,,,,,,,,,,,,,,,,,,,,,,,,,S3,1,2019_Nov_19_1106,test_final,3.1.5,60.18860702
,,,,,,,,,,,,,,,,,,,,1,0,1,0,,,,,,,,,,,,,,,,,,,,,,,,,,,,,,,,,,,,,,,,,,,,,,,,,,,,,,,,,,,,,,,,,,,,,,,,,,,,,,,,,,,,,,,,,,,,,,,,,ntx,"['n', 't', 'x']",0,"[3.720123399994918, 6.602679699994042, 7.566748299999745, 7.767798799992306, 8.038304000001517, 8.359452499993495, 8.712411999993492]",344.5508795,None,344.5508795,None,344.5508795,None,0,353.8247616,None,,,,,,,,,,,,,,,,,,,,,,,,,,,,,,,,,,,,S3,1,2019_Nov_19_1106,test_final,3.1.5,60.18860702
Practice,1,(1x2) + 1,3,,,,,,,,,,,,,,,,,2,0,2,0,0,0,0,0,0,0,0,0,,,,,,,,,,,,,,,,,,,,,,,,,,,,,,,,,,,,,,3,,,,,,,,,,,,,,,,,,,,,,,,,,,,,,,,,355.3736823,None,['3'],0,[3.2577232000039658],355.3736823,None,355.3736823,None,355.3736823,None,1,358.7296537,None,358.7296537,None,,,,,,,,,,,,,,,,,,,,,,,,,,,,,,,,,,,,,,,,,,,,,,,,,,,S3,1,2019_Nov_19_1106,test_final,3.1.5,60.18860702
,,,,,,,,,,,,,,,,,,,,2,0,2,0,0,0,0,0,,,,,,,,,,,,,,,,,,,,,,,,,,,,,,,,,,,,,,,,,,,,,,,,,,,,,,,,,,,,,,,,,,,,,,,,,,,,,,,,,,,,,,,,,,,360.0526034,None,,,,,,,,,,,,,,,,,,,,,,,,,,,,,,,,,,,,,,,,,,,,,,,,,S3,1,2019_Nov_19_1106,test_final,3.1.5,60.18860702
Practice,4,(4x4) - 14,2,,,,,,,,,,,,,,,,,2,0,2,0,1,0,1,0,0,0,0,3,,,,,,,,,,,,,,,,,,,,,,,,,,,,,,,,,,,,,,2,,,,,,,,,,,,,,,,,,,,,,,,,,,,,,,,,361.3677318,None,['2'],0,[2.2229214000108186],361.3677318,None,361.3677318,None,361.3677318,None,1,363.6866765,None,363.6866765,None,,,,,,,,,,,,,,,,,,,,,,,,,,,,,,,,,,,,,,,,,,,,,,,,,,,S3,1,2019_Nov_19_1106,test_final,3.1.5,60.18860702
,,,,,,,,,,,,,,,,,,,,2,0,2,0,1,0,1,0,,,,,,,,,,,,,,,,,,,,,,,,,,,,,,,,,,,,,,,,,,,,,,,,,,,,,,,,,,,,,,,,,,,,,,,,,,,,,,,,,,,,,,,,,,,365.0141838,None,,,,,,,,,,,,,,,,,,,,,,,,,,,,,,,,,,,,,,,,,,,,,,,,,S3,1,2019_Nov_19_1106,test_final,3.1.5,60.18860702
,,,,,,,,,,,,,,,,,,,,2,0,2,0,,,,,,,,,,,,,,,,,,,,,,,,,,,,,,,,,,,,,,,,,,,,,,,,,,,,,,,,,,,,,,,,,,,,,,,,,,,,,,,,,,,,,,,,,,,,,,,,,zt,"['z', 't']",0,"[1.5673966000031214, 1.8192400999978418, 2.0294635000027483]",366.2964864,None,366.2964864,None,366.2964864,None,1,368.8769044,None,,,,,,,,,,,,,,,,,,,,,,,,,,,,,,,,,,,,S3,1,2019_Nov_19_1106,test_final,3.1.5,60.18860702
Practice,6,(2x6) - 8,4,,,,,,,,,,,,,,,,,3,0,3,0,0,0,0,0,0,0,0,5,,,,,,,,,,,,,,,,,,,,,,,,,,,,,,,,,,,,,,4,,,,,,,,,,,,,,,,,,,,,,,,,,,,,,,,,370.3922519,None,['4'],0,[2.377997100003995],370.3922519,None,370.3922519,None,370.3922519,None,1,372.8602075,None,372.8602075,None,,,,,,,,,,,,,,,,,,,,,,,,,,,,,,,,,,,,,,,,,,,,,,,,,,,S3,1,2019_Nov_19_1106,test_final,3.1.5,60.18860702
,,,,,,,,,,,,,,,,,,,,3,0,3,0,0,0,0,0,,,,,,,,,,,,,,,,,,,,,,,,,,,,,,,,,,,,,,,,,,,,,,,,,,,,,,,,,,,,,,,,,,,,,,,,,,,,,,,,,,,,,,,,,,,374.2052523,None,,,,,,,,,,,,,,,,,,,,,,,,,,,,,,,,,,,,,,,,,,,,,,,,,S3,1,2019_Nov_19_1106,test_final,3.1.5,60.18860702
Practice,13,(3x8) - 19 ,5,,,,,,,,,,,,,,,,,3,0,3,0,1,0,1,0,0,0,0,12,,,,,,,,,,,,,,,,,,,,,,,,,,,,,,,,,,,,,,5,,,,,,,,,,,,,,,,,,,,,,,,,,,,,,,,,375.5205111,None,['5'],0,[1.3429482999927131],375.5205111,None,375.5205111,None,375.5205111,None,1,376.9435873,None,376.9435873,None,,,,,,,,,,,,,,,,,,,,,,,,,,,,,,,,,,,,,,,,,,,,,,,,,,,S3,1,2019_Nov_19_1106,test_final,3.1.5,60.18860702
,,,,,,,,,,,,,,,,,,,,3,0,3,0,1,0,1,0,,,,,,,,,,,,,,,,,,,,,,,,,,,,,,,,,,,,,,,,,,,,,,,,,,,,,,,,,,,,,,,,,,,,,,,,,,,,,,,,,,,,,,,,,,,378.2845354,None,,,,,,,,,,,,,,,,,,,,,,,,,,,,,,,,,,,,,,,,,,,,,,,,,S3,1,2019_Nov_19_1106,test_final,3.1.5,60.18860702
,,,,,,,,,,,,,,,,,,,,3,0,3,0,,,,,,,,,,,,,,,,,,,,,,,,,,,,,,,,,,,,,,,,,,,,,,,,,,,,,,,,,,,,,,,,,,,,,,,,,,,,,,,,,,,,,,,,,,,,,,,,,xv,"['x', 'v']",0,"[0.7773210999876028, 0.9901618999865605, 1.46342949999962]",379.5666554,None,379.5666554,None,379.5666554,None,1,381.5806231,None,,,,,,,,,,,,,,,,,,,,,,,,,,,,,,,,,,,,S3,1,2019_Nov_19_1106,test_final,3.1.5,60.18860702
Practice,14,(6/3) + 4 ,6,,,,,,,,,,,,,,,,,4,0,4,0,0,0,0,0,0,0,0,13,,,,,,,,,,,,,,,,,,,,,,,,,,,,,,,,,,,,,,6,,,,,,,,,,,,,,,,,,,,,,,,,,,,,,,,,383.1133812,None,['6'],0,[1.883950499992352],383.1133812,None,383.1133812,None,383.1133812,None,1,385.1048645,None,385.1048645,None,,,,,,,,,,,,,,,,,,,,,,,,,,,,,,,,,,,,,,,,,,,,,,,,,,,S3,1,2019_Nov_19_1106,test_final,3.1.5,60.18860702
,,,,,,,,,,,,,,,,,,,,4,0,4,0,0,0,0,0,,,,,,,,,,,,,,,,,,,,,,,,,,,,,,,,,,,,,,,,,,,,,,,,,,,,,,,,,,,,,,,,,,,,,,,,,,,,,,,,,,,,,,,,,,,386.4264137,None,,,,,,,,,,,,,,,,,,,,,,,,,,,,,,,,,,,,,,,,,,,,,,,,,S3,1,2019_Nov_19_1106,test_final,3.1.5,60.18860702
Practice,6,(2x6) - 8,4,,,,,,,,,,,,,,,,,4,0,4,0,1,0,1,0,0,0,0,5,,,,,,,,,,,,,,,,,,,,,,,,,,,,,,,,,,,,,,4,,,,,,,,,,,,,,,,,,,,,,,,,,,,,,,,,387.7586603,None,['4'],0,[1.6736555000097724],387.7586603,None,387.7586603,None,387.7586603,None,1,389.5389291,None,389.5389291,None,,,,,,,,,,,,,,,,,,,,,,,,,,,,,,,,,,,,,,,,,,,,,,,,,,,S3,1,2019_Nov_19_1106,test_final,3.1.5,60.18860702
,,,,,,,,,,,,,,,,,,,,4,0,4,0,1,0,1,0,,,,,,,,,,,,,,,,,,,,,,,,,,,,,,,,,,,,,,,,,,,,,,,,,,,,,,,,,,,,,,,,,,,,,,,,,,,,,,,,,,,,,,,,,,,390.8556912,None,,,,,,,,,,,,,,,,,,,,,,,,,,,,,,,,,,,,,,,,,,,,,,,,,S3,1,2019_Nov_19_1106,test_final,3.1.5,60.18860702
,,,,,,,,,,,,,,,,,,,,4,0,4,0,,,,,,,,,,,,,,,,,,,,,,,,,,,,,,,,,,,,,,,,,,,,,,,,,,,,,,,,,,,,,,,,,,,,,,,,,,,,,,,,,,,,,,,,,,,,,,,,,rs,"['r', 's']",0,"[0.6531420999963302, 0.7701885999995284, 1.1405683000048157]",392.1544932,None,392.1544932,None,392.1544932,None,1,393.8522935,None,,,,,,,,,,,,,,,,,,,,,,,,,,,,,,,,,,,,S3,1,2019_Nov_19_1106,test_final,3.1.5,60.18860702
,,,,,,,,,,,,,,,,,,,,,,,,,,,,,,,,,,,,,,,,,,,,,,,,,,,,,,,,,,,,,,,,,,,,,,,,,,,,,,,,,,,,,,,,,,,,,,,,,,,,,,,,,,,,,,,,,,,,,,,,,,,,,,,,,,,,,395.3683888,None,space,7.8824804,395.3683888,None,,,,,,,,,,,,,,,,,,,,,,,,,,,,,,S3,1,2019_Nov_19_1106,test_final,3.1.5,60.18860702
Practice,4,(4x4) - 14,2,,,,,,,,,,,,,,,,,,,,,,,,,,,,,0,0,0,0,0,0,0,0,0,0,0,3,,,,,,,,,,,,,,,,,,,,,,,,,,2,,,,,,,,,,,,,,,,,,,,,,,,,,,,,,,,,,,,,,,,,,,,1,,,,,,,,,,,,,,,,,,,,,,,,,,403.8428882,None,['2'],0,[1.9341054999968037],403.8428882,None,403.8428882,None,403.8428882,None,405.8845061,None,405.8845061,None,,,,,,,,,,,,,,,S3,1,2019_Nov_19_1106,test_final,3.1.5,60.18860702
,,,,,,,,,,,,,,,,,,,,,,,,,,,,,,,,0,0,0,0,0,0,0,0,,,,,,,,,,,,,,,,,,,,,,,,,,,,,,,,,,,,,,,,,,,,,,,,,,,,,,,,,,,,,,,,,,,,,,,,,,,,,,,,,,,,,,,,,,,,,,,,,,,,,,,,,,,,,,,,,,,407.2227734,None,,,,,,,,,,,,,S3,1,2019_Nov_19_1106,test_final,3.1.5,60.18860702
Practice,2,(1/1) - 1,0,,,,,,,,,,,,,,,,,,,,,,,,,,,,,0,0,0,0,1,0,1,0,0,0,0,1,,,,,,,,,,,,,,,,,,,,,,,,,,0,,,,,,,,,,,,,,,,,,,,,,,,,,,,,,,,,,,,,,,,,,,,1,,,,,,,,,,,,,,,,,,,,,,,,,,408.5384487,None,['0'],0,[1.8470089999900665],408.5384487,None,408.5384487,None,408.5384487,None,410.4720744,None,410.4720744,None,,,,,,,,,,,,,,,S3,1,2019_Nov_19_1106,test_final,3.1.5,60.18860702
,,,,,,,,,,,,,,,,,,,,,,,,,,,,,,,,0,0,0,0,1,0,1,0,,,,,,,,,,,,,,,,,,,,,,,,,,,,,,,,,,,,,,,,,,,,,,,,,,,,,,,,,,,,,,,,,,,,,,,,,,,,,,,,,,,,,,,,,,,,,,,,,,,,,,,,,,,,,,,,,,,411.8018586,None,,,,,,,,,,,,,S3,1,2019_Nov_19_1106,test_final,3.1.5,60.18860702
,,,,,,,,,,,,,,,,,,,,,,,,,,,,,,,,0,0,0,0,,,,,,,,,,,,,,,,,,,,,,,,,,,,,,,,,,,,,,,,,,,,,,,,,,,,,,,,,,,,,,,,,,,,,,,,,,,,,,,,,,,,,,,,,,,,,,,,,,,,,,,,,,,,,,,,,,,,,,,,,sz,"['s', 'z']",0,"[0.306292500012205, 0.5507740000030026, 0.8697580000007292]",413.1006974,None,413.1006974,None,1,SZ,413.1006974,None,S3,1,2019_Nov_19_1106,test_final,3.1.5,60.18860702
Practice,4,(4x4) - 14,2,,,,,,,,,,,,,,,,,,,,,,,,,,,,,1,0,1,0,0,0,0,0,0,0,0,3,,,,,,,,,,,,,,,,,,,,,,,,,,2,,,,,,,,,,,,,,,,,,,,,,,,,,,,,,,,,,,,,,,,,,,,1,,,,,,,,,,,,,,,,,,,,,,,,,,414.5656644,None,['2'],0,[1.198281799996039],414.5656644,None,414.5656644,None,414.5656644,None,415.8575345,None,415.8575345,None,,,,,,,,,,,,,,,S3,1,2019_Nov_19_1106,test_final,3.1.5,60.18860702
,,,,,,,,,,,,,,,,,,,,,,,,,,,,,,,,1,0,1,0,0,0,0,0,,,,,,,,,,,,,,,,,,,,,,,,,,,,,,,,,,,,,,,,,,,,,,,,,,,,,,,,,,,,,,,,,,,,,,,,,,,,,,,,,,,,,,,,,,,,,,,,,,,,,,,,,,,,,,,,,,,417.2131574,None,,,,,,,,,,,,,S3,1,2019_Nov_19_1106,test_final,3.1.5,60.18860702
Practice,9,(4/2) + 5,7,,,,,,,,,,,,,,,,,,,,,,,,,,,,,1,0,1,0,1,0,1,0,0,0,0,8,,,,,,,,,,,,,,,,,,,,,,,,,,7,,,,,,,,,,,,,,,,,,,,,,,,,,,,,,,,,,,,,,,,,,,,1,,,,,,,,,,,,,,,,,,,,,,,,,,418.5284793,None,['7'],0,[1.6117037999938475],418.5284793,None,418.5284793,None,418.5284793,None,420.206818,None,420.206818,None,,,,,,,,,,,,,,,S3,1,2019_Nov_19_1106,test_final,3.1.5,60.18860702
,,,,,,,,,,,,,,,,,,,,,,,,,,,,,,,,1,0,1,0,1,0,1,0,,,,,,,,,,,,,,,,,,,,,,,,,,,,,,,,,,,,,,,,,,,,,,,,,,,,,,,,,,,,,,,,,,,,,,,,,,,,,,,,,,,,,,,,,,,,,,,,,,,,,,,,,,,,,,,,,,,421.5588326,None,,,,,,,,,,,,,S3,1,2019_Nov_19_1106,test_final,3.1.5,60.18860702
Practice,14,(6/3) + 4 ,6,,,,,,,,,,,,,,,,,,,,,,,,,,,,,1,0,1,0,2,0,2,0,0,0,0,13,,,,,,,,,,,,,,,,,,,,,,,,,,6,,,,,,,,,,,,,,,,,,,,,,,,,,,,,,,,,,,,,,,,,,,,1,,,,,,,,,,,,,,,,,,,,,,,,,,422.8741968,None,['6'],0,[2.533981300002779],422.8741968,None,422.8741968,None,422.8741968,None,425.5151355,None,425.5151355,None,,,,,,,,,,,,,,,S3,1,2019_Nov_19_1106,test_final,3.1.5,60.18860702
,,,,,,,,,,,,,,,,,,,,,,,,,,,,,,,,1,0,1,0,2,0,2,0,,,,,,,,,,,,,,,,,,,,,,,,,,,,,,,,,,,,,,,,,,,,,,,,,,,,,,,,,,,,,,,,,,,,,,,,,,,,,,,,,,,,,,,,,,,,,,,,,,,,,,,,,,,,,,,,,,,426.8703894,None,,,,,,,,,,,,,S3,1,2019_Nov_19_1106,test_final,3.1.5,60.18860702
,,,,,,,,,,,,,,,,,,,,,,,,,,,,,,,,1,0,1,0,,,,,,,,,,,,,,,,,,,,,,,,,,,,,,,,,,,,,,,,,,,,,,,,,,,,,,,,,,,,,,,,,,,,,,,,,,,,,,,,,,,,,,,,,,,,,,,,,,,,,,,,,,,,,,,,,,,,,,,,,jzt,"['j', 'z', 't']",0,"[0.8814397999958601, 0.973713500003214, 1.189356399991084, 1.4544986999972025]",428.152562,None,428.152562,None,1,JZT,428.152562,None,S3,1,2019_Nov_19_1106,test_final,3.1.5,60.18860702
Practice,3,(7x2) - 5,9,,,,,,,,,,,,,,,,,,,,,,,,,,,,,2,0,2,0,0,0,0,0,0,0,0,2,,,,,,,,,,,,,,,,,,,,,,,,,,9,,,,,,,,,,,,,,,,,,,,,,,,,,,,,,,,,,,,,,,,,,,,1,,,,,,,,,,,,,,,,,,,,,,,,,,430.1999262,None,['9'],0,[2.870577699999558],430.1999262,None,430.1999262,None,430.1999262,None,433.1514045,None,433.1514045,None,,,,,,,,,,,,,,,S3,1,2019_Nov_19_1106,test_final,3.1.5,60.18860702
,,,,,,,,,,,,,,,,,,,,,,,,,,,,,,,,2,0,2,0,0,0,0,0,,,,,,,,,,,,,,,,,,,,,,,,,,,,,,,,,,,,,,,,,,,,,,,,,,,,,,,,,,,,,,,,,,,,,,,,,,,,,,,,,,,,,,,,,,,,,,,,,,,,,,,,,,,,,,,,,,,434.4961319,None,,,,,,,,,,,,,S3,1,2019_Nov_19_1106,test_final,3.1.5,60.18860702
Practice,13,(3x8) - 19 ,5,,,,,,,,,,,,,,,,,,,,,,,,,,,,,2,0,2,0,1,0,1,0,0,0,0,12,,,,,,,,,,,,,,,,,,,,,,,,,,5,,,,,,,,,,,,,,,,,,,,,,,,,,,,,,,,,,,,,,,,,,,,1,,,,,,,,,,,,,,,,,,,,,,,,,,435.8116091,None,['5'],0,[1.3570901000057347],435.8116091,None,435.8116091,None,435.8116091,None,437.262618,None,437.262618,None,,,,,,,,,,,,,,,S3,1,2019_Nov_19_1106,test_final,3.1.5,60.18860702
,,,,,,,,,,,,,,,,,,,,,,,,,,,,,,,,2,0,2,0,1,0,1,0,,,,,,,,,,,,,,,,,,,,,,,,,,,,,,,,,,,,,,,,,,,,,,,,,,,,,,,,,,,,,,,,,,,,,,,,,,,,,,,,,,,,,,,,,,,,,,,,,,,,,,,,,,,,,,,,,,,438.5921643,None,,,,,,,,,,,,,S3,1,2019_Nov_19_1106,test_final,3.1.5,60.18860702
Practice,14,(6/3) + 4 ,6,,,,,,,,,,,,,,,,,,,,,,,,,,,,,2,0,2,0,2,0,2,0,0,0,0,13,,,,,,,,,,,,,,,,,,,,,,,,,,6,,,,,,,,,,,,,,,,,,,,,,,,,,,,,,,,,,,,,,,,,,,,1,,,,,,,,,,,,,,,,,,,,,,,,,,439.9241741,None,['6'],0,[1.5299514999933308],439.9241741,None,439.9241741,None,439.9241741,None,441.5392332,None,441.5392332,None,,,,,,,,,,,,,,,S3,1,2019_Nov_19_1106,test_final,3.1.5,60.18860702
,,,,,,,,,,,,,,,,,,,,,,,,,,,,,,,,2,0,2,0,2,0,2,0,,,,,,,,,,,,,,,,,,,,,,,,,,,,,,,,,,,,,,,,,,,,,,,,,,,,,,,,,,,,,,,,,,,,,,,,,,,,,,,,,,,,,,,,,,,,,,,,,,,,,,,,,,,,,,,,,,,442.8707014,None,,,,,,,,,,,,,S3,1,2019_Nov_19_1106,test_final,3.1.5,60.18860702
Practice,6,(2x6) - 8,4,,,,,,,,,,,,,,,,,,,,,,,,,,,,,2,0,2,0,3,0,3,0,0,0,0,5,,,,,,,,,,,,,,,,,,,,,,,,,,4,,,,,,,,,,,,,,,,,,,,,,,,,,,,,,,,,,,,,,,,,,,,1,,,,,,,,,,,,,,,,,,,,,,,,,,444.1862344,None,['4'],0,[1.281165799999144],444.1862344,None,444.1862344,None,444.1862344,None,445.5370552,None,445.5370552,None,,,,,,,,,,,,,,,S3,1,2019_Nov_19_1106,test_final,3.1.5,60.18860702
,,,,,,,,,,,,,,,,,,,,,,,,,,,,,,,,2,0,2,0,3,0,3,0,,,,,,,,,,,,,,,,,,,,,,,,,,,,,,,,,,,,,,,,,,,,,,,,,,,,,,,,,,,,,,,,,,,,,,,,,,,,,,,,,,,,,,,,,,,,,,,,,,,,,,,,,,,,,,,,,,,446.8667136,None,,,,,,,,,,,,,S3,1,2019_Nov_19_1106,test_final,3.1.5,60.18860702
,,,,,,,,,,,,,,,,,,,,,,,,,,,,,,,,2,0,2,0,,,,,,,,,,,,,,,,,,,,,,,,,,,,,,,,,,,,,,,,,,,,,,,,,,,,,,,,,,,,,,,,,,,,,,,,,,,,,,,,,,,,,,,,,,,,,,,,,,,,,,,,,,,,,,,,,,,,,,,,,trnv,"['t', 'r', 'n', 'v']",0,"[0.4843133999966085, 0.706789400006528, 0.966331400006311, 1.2615534000069601, 2.271143799996935]",448.1656677,None,448.1656677,None,1,TRNV,448.1656677,None,S3,1,2019_Nov_19_1106,test_final,3.1.5,60.18860702
Practice,8,(3/3) + 5,6,,,,,,,,,,,,,,,,,,,,,,,,,,,,,3,0,3,0,0,0,0,0,0,0,0,7,,,,,,,,,,,,,,,,,,,,,,,,,,6,,,,,,,,,,,,,,,,,,,,,,,,,,,,,,,,,,,,,,,,,,,,1,,,,,,,,,,,,,,,,,,,,,,,,,,451.012852,None,['6'],0,[1.8910328000056325],451.012852,None,451.012852,None,451.012852,None,452.9725401,None,452.9725401,None,,,,,,,,,,,,,,,S3,1,2019_Nov_19_1106,test_final,3.1.5,60.18860702
,,,,,,,,,,,,,,,,,,,,,,,,,,,,,,,,3,0,3,0,0,0,0,0,,,,,,,,,,,,,,,,,,,,,,,,,,,,,,,,,,,,,,,,,,,,,,,,,,,,,,,,,,,,,,,,,,,,,,,,,,,,,,,,,,,,,,,,,,,,,,,,,,,,,,,,,,,,,,,,,,,454.3095754,None,,,,,,,,,,,,,S3,1,2019_Nov_19_1106,test_final,3.1.5,60.18860702
Practice,9,(4/2) + 5,7,,,,,,,,,,,,,,,,,,,,,,,,,,,,,3,0,3,0,1,0,1,0,0,0,0,8,,,,,,,,,,,,,,,,,,,,,,,,,,7,,,,,,,,,,,,,,,,,,,,,,,,,,,,,,,,,,,,,,,,,,,,1,,,,,,,,,,,,,,,,,,,,,,,,,,455.6250102,None,['7'],0,[1.7533732000010787],455.6250102,None,455.6250102,None,455.6250102,None,457.4515359,None,457.4515359,None,,,,,,,,,,,,,,,S3,1,2019_Nov_19_1106,test_final,3.1.5,60.18860702
,,,,,,,,,,,,,,,,,,,,,,,,,,,,,,,,3,0,3,0,1,0,1,0,,,,,,,,,,,,,,,,,,,,,,,,,,,,,,,,,,,,,,,,,,,,,,,,,,,,,,,,,,,,,,,,,,,,,,,,,,,,,,,,,,,,,,,,,,,,,,,,,,,,,,,,,,,,,,,,,,,458.805874,None,,,,,,,,,,,,,S3,1,2019_Nov_19_1106,test_final,3.1.5,60.18860702
Practice,14,(6/3) + 4 ,6,,,,,,,,,,,,,,,,,,,,,,,,,,,,,3,0,3,0,2,0,2,0,0,0,0,13,,,,,,,,,,,,,,,,,,,,,,,,,,6,,,,,,,,,,,,,,,,,,,,,,,,,,,,,,,,,,,,,,,,,,,,1,,,,,,,,,,,,,,,,,,,,,,,,,,460.1213788,None,['6'],0,[1.7317213999922387],460.1213788,None,460.1213788,None,460.1213788,None,461.9118706,None,461.9118706,None,,,,,,,,,,,,,,,S3,1,2019_Nov_19_1106,test_final,3.1.5,60.18860702
,,,,,,,,,,,,,,,,,,,,,,,,,,,,,,,,3,0,3,0,2,0,2,0,,,,,,,,,,,,,,,,,,,,,,,,,,,,,,,,,,,,,,,,,,,,,,,,,,,,,,,,,,,,,,,,,,,,,,,,,,,,,,,,,,,,,,,,,,,,,,,,,,,,,,,,,,,,,,,,,,,463.2682461,None,,,,,,,,,,,,,S3,1,2019_Nov_19_1106,test_final,3.1.5,60.18860702
Practice,12,(8/2) + 4,8,,,,,,,,,,,,,,,,,,,,,,,,,,,,,3,0,3,0,3,0,3,0,0,0,0,11,,,,,,,,,,,,,,,,,,,,,,,,,,8,,,,,,,,,,,,,,,,,,,,,,,,,,,,,,,,,,,,,,,,,,,,1,,,,,,,,,,,,,,,,,,,,,,,,,,464.5834545,None,['8'],0,[1.8470945000008214],464.5834545,None,464.5834545,None,464.5834545,None,466.5205737,None,466.5205737,None,,,,,,,,,,,,,,,S3,1,2019_Nov_19_1106,test_final,3.1.5,60.18860702
,,,,,,,,,,,,,,,,,,,,,,,,,,,,,,,,3,0,3,0,3,0,3,0,,,,,,,,,,,,,,,,,,,,,,,,,,,,,,,,,,,,,,,,,,,,,,,,,,,,,,,,,,,,,,,,,,,,,,,,,,,,,,,,,,,,,,,,,,,,,,,,,,,,,,,,,,,,,,,,,,,467.8635491,None,,,,,,,,,,,,,S3,1,2019_Nov_19_1106,test_final,3.1.5,60.18860702
Practice,10,(8/4) + 3,5,,,,,,,,,,,,,,,,,,,,,,,,,,,,,3,0,3,0,4,0,4,0,0,0,0,9,,,,,,,,,,,,,,,,,,,,,,,,,,5,,,,,,,,,,,,,,,,,,,,,,,,,,,,,,,,,,,,,,,,,,,,1,,,,,,,,,,,,,,,,,,,,,,,,,,469.1789736,None,['5'],0,[2.1035160000028554],469.1789736,None,469.1789736,None,469.1789736,None,471.3743096,None,471.3743096,None,,,,,,,,,,,,,,,S3,1,2019_Nov_19_1106,test_final,3.1.5,60.18860702
,,,,,,,,,,,,,,,,,,,,,,,,,,,,,,,,3,0,3,0,4,0,4,0,,,,,,,,,,,,,,,,,,,,,,,,,,,,,,,,,,,,,,,,,,,,,,,,,,,,,,,,,,,,,,,,,,,,,,,,,,,,,,,,,,,,,,,,,,,,,,,,,,,,,,,,,,,,,,,,,,,472.7254487,None,,,,,,,,,,,,,S3,1,2019_Nov_19_1106,test_final,3.1.5,60.18860702
,,,,,,,,,,,,,,,,,,,,,,,,,,,,,,,,3,0,3,0,,,,,,,,,,,,,,,,,,,,,,,,,,,,,,,,,,,,,,,,,,,,,,,,,,,,,,,,,,,,,,,,,,,,,,,,,,,,,,,,,,,,,,,,,,,,,,,,,,,,,,,,,,,,,,,,,,,,,,,,,lxvtq,"['l', 'x', 'v', 't', 'q']",0,"[0.9518095000094036, 1.2043402999988757, 1.5083983000076842, 1.7560999999986961, 2.29697060000035, 2.5983631999988575]",474.0075057,None,474.0075057,None,1,LXVTQ,474.0075057,None,S3,1,2019_Nov_19_1106,test_final,3.1.5,60.18860702
Practice,14,(6/3) + 4 ,6,,,,,,,,,,,,,,,,,,,,,,,,,,,,,4,0,4,0,0,0,0,0,0,0,0,13,,,,,,,,,,,,,,,,,,,,,,,,,,6,,,,,,,,,,,,,,,,,,,,,,,,,,,,,,,,,,,,,,,,,,,,1,,,,,,,,,,,,,,,,,,,,,,,,,,477.1878069,None,['6'],0,[1.3930796999920858],477.1878069,None,477.1878069,None,477.1878069,None,478.6708525,None,478.6708525,None,,,,,,,,,,,,,,,S3,1,2019_Nov_19_1106,test_final,3.1.5,60.18860702
,,,,,,,,,,,,,,,,,,,,,,,,,,,,,,,,4,0,4,0,0,0,0,0,,,,,,,,,,,,,,,,,,,,,,,,,,,,,,,,,,,,,,,,,,,,,,,,,,,,,,,,,,,,,,,,,,,,,,,,,,,,,,,,,,,,,,,,,,,,,,,,,,,,,,,,,,,,,,,,,,,480.0181593,None,,,,,,,,,,,,,S3,1,2019_Nov_19_1106,test_final,3.1.5,60.18860702
Practice,5,(3/3) + 2,3,,,,,,,,,,,,,,,,,,,,,,,,,,,,,4,0,4,0,1,0,1,0,0,0,0,4,,,,,,,,,,,,,,,,,,,,,,,,,,3,,,,,,,,,,,,,,,,,,,,,,,,,,,,,,,,,,,,,,,,,,,,1,,,,,,,,,,,,,,,,,,,,,,,,,,481.3338039,None,['3'],0,[2.1106777999957558],481.3338039,None,481.3338039,None,481.3338039,None,483.5284871,None,483.5284871,None,,,,,,,,,,,,,,,S3,1,2019_Nov_19_1106,test_final,3.1.5,60.18860702
,,,,,,,,,,,,,,,,,,,,,,,,,,,,,,,,4,0,4,0,1,0,1,0,,,,,,,,,,,,,,,,,,,,,,,,,,,,,,,,,,,,,,,,,,,,,,,,,,,,,,,,,,,,,,,,,,,,,,,,,,,,,,,,,,,,,,,,,,,,,,,,,,,,,,,,,,,,,,,,,,,484.880348,None,,,,,,,,,,,,,S3,1,2019_Nov_19_1106,test_final,3.1.5,60.18860702
Practice,3,(7x2) - 5,9,,,,,,,,,,,,,,,,,,,,,,,,,,,,,4,0,4,0,2,0,2,0,0,0,0,2,,,,,,,,,,,,,,,,,,,,,,,,,,9,,,,,,,,,,,,,,,,,,,,,,,,,,,,,,,,,,,,,,,,,,,,1,,,,,,,,,,,,,,,,,,,,,,,,,,486.1954818,None,['9'],0,[1.8874183000007179],486.1954818,None,486.1954818,None,486.1954818,None,488.1759481,None,488.1759481,None,,,,,,,,,,,,,,,S3,1,2019_Nov_19_1106,test_final,3.1.5,60.18860702
,,,,,,,,,,,,,,,,,,,,,,,,,,,,,,,,4,0,4,0,2,0,2,0,,,,,,,,,,,,,,,,,,,,,,,,,,,,,,,,,,,,,,,,,,,,,,,,,,,,,,,,,,,,,,,,,,,,,,,,,,,,,,,,,,,,,,,,,,,,,,,,,,,,,,,,,,,,,,,,,,,489.5253465,None,,,,,,,,,,,,,S3,1,2019_Nov_19_1106,test_final,3.1.5,60.18860702
Practice,12,(8/2) + 4,8,,,,,,,,,,,,,,,,,,,,,,,,,,,,,4,0,4,0,3,0,3,0,0,0,0,11,,,,,,,,,,,,,,,,,,,,,,,,,,8,,,,,,,,,,,,,,,,,,,,,,,,,,,,,,,,,,,,,,,,,,,,1,,,,,,,,,,,,,,,,,,,,,,,,,,490.8411015,None,['8'],0,[1.6844189999974333],490.8411015,None,490.8411015,None,490.8411015,None,492.6161326,None,492.6161326,None,,,,,,,,,,,,,,,S3,1,2019_Nov_19_1106,test_final,3.1.5,60.18860702
,,,,,,,,,,,,,,,,,,,,,,,,,,,,,,,,4,0,4,0,3,0,3,0,,,,,,,,,,,,,,,,,,,,,,,,,,,,,,,,,,,,,,,,,,,,,,,,,,,,,,,,,,,,,,,,,,,,,,,,,,,,,,,,,,,,,,,,,,,,,,,,,,,,,,,,,,,,,,,,,,,493.9545238,None,,,,,,,,,,,,,S3,1,2019_Nov_19_1106,test_final,3.1.5,60.18860702
Practice,5,(3/3) + 2,3,,,,,,,,,,,,,,,,,,,,,,,,,,,,,4,0,4,0,4,0,4,0,0,0,0,4,,,,,,,,,,,,,,,,,,,,,,,,,,3,,,,,,,,,,,,,,,,,,,,,,,,,,,,,,,,,,,,,,,,,,,,1,,,,,,,,,,,,,,,,,,,,,,,,,,495.2866218,None,['3'],0,[1.3811780999967596],495.2866218,None,495.2866218,None,495.2866218,None,496.7624617,None,496.7624617,None,,,,,,,,,,,,,,,S3,1,2019_Nov_19_1106,test_final,3.1.5,60.18860702
,,,,,,,,,,,,,,,,,,,,,,,,,,,,,,,,4,0,4,0,4,0,4,0,,,,,,,,,,,,,,,,,,,,,,,,,,,,,,,,,,,,,,,,,,,,,,,,,,,,,,,,,,,,,,,,,,,,,,,,,,,,,,,,,,,,,,,,,,,,,,,,,,,,,,,,,,,,,,,,,,,498.1172444,None,,,,,,,,,,,,,S3,1,2019_Nov_19_1106,test_final,3.1.5,60.18860702
Practice,10,(8/4) + 3,5,,,,,,,,,,,,,,,,,,,,,,,,,,,,,4,0,4,0,5,0,5,0,0,0,0,9,,,,,,,,,,,,,,,,,,,,,,,,,,5,,,,,,,,,,,,,,,,,,,,,,,,,,,,,,,,,,,,,,,,,,,,1,,,,,,,,,,,,,,,,,,,,,,,,,,499.4162075,None,['5'],0,[2.453886000002967],499.4162075,None,499.4162075,None,499.4162075,None,501.9584644,None,501.9584644,None,,,,,,,,,,,,,,,S3,1,2019_Nov_19_1106,test_final,3.1.5,60.18860702
,,,,,,,,,,,,,,,,,,,,,,,,,,,,,,,,4,0,4,0,5,0,5,0,,,,,,,,,,,,,,,,,,,,,,,,,,,,,,,,,,,,,,,,,,,,,,,,,,,,,,,,,,,,,,,,,,,,,,,,,,,,,,,,,,,,,,,,,,,,,,,,,,,,,,,,,,,,,,,,,,,503.295536,None,,,,,,,,,,,,,S3,1,2019_Nov_19_1106,test_final,3.1.5,60.18860702
,,,,,,,,,,,,,,,,,,,,,,,,,,,,,,,,4,0,4,0,,,,,,,,,,,,,,,,,,,,,,,,,,,,,,,,,,,,,,,,,,,,,,,,,,,,,,,,,,,,,,,,,,,,,,,,,,,,,,,,,,,,,,,,,,,,,,,,,,,,,,,,,,,,,,,,,,,,,,,,,sqlxrv,"['s', 'q', 'l', 'x', 'r', 'v']",0,"[1.2431269000080647, 1.8149525000044378, 2.337329200003296, 2.726398500002688, 3.823700100008864, 4.434633199998643, 4.819981799999368]",504.5942916,None,504.5942916,None,1,SQLXRV,504.5942916,None,S3,1,2019_Nov_19_1106,test_final,3.1.5,60.18860702
Practice,13,(3x8) - 19 ,5,,,,,,,,,,,,,,,,,,,,,,,,,,,,,5,0,5,0,0,0,0,0,0,0,0,12,,,,,,,,,,,,,,,,,,,,,,,,,,5,,,,,,,,,,,,,,,,,,,,,,,,,,,,,,,,,,,,,,,,,,,,1,,,,,,,,,,,,,,,,,,,,,,,,,,509.9885153,None,['5'],0,[1.4875012999982573],509.9885153,None,509.9885153,None,509.9885153,None,511.553494,None,511.553494,None,,,,,,,,,,,,,,,S3,1,2019_Nov_19_1106,test_final,3.1.5,60.18860702
,,,,,,,,,,,,,,,,,,,,,,,,,,,,,,,,5,0,5,0,0,0,0,0,,,,,,,,,,,,,,,,,,,,,,,,,,,,,,,,,,,,,,,,,,,,,,,,,,,,,,,,,,,,,,,,,,,,,,,,,,,,,,,,,,,,,,,,,,,,,,,,,,,,,,,,,,,,,,,,,,,512.886046,None,,,,,,,,,,,,,S3,1,2019_Nov_19_1106,test_final,3.1.5,60.18860702
Practice,14,(6/3) + 4 ,6,,,,,,,,,,,,,,,,,,,,,,,,,,,,,5,0,5,0,1,0,1,0,0,0,0,13,,,,,,,,,,,,,,,,,,,,,,,,,,6,,,,,,,,,,,,,,,,,,,,,,,,,,,,,,,,,,,,,,,,,,,,1,,,,,,,,,,,,,,,,,,,,,,,,,,514.2017223,None,['6'],0,[1.9575025999947684],514.2017223,None,514.2017223,None,514.2017223,None,516.247917,None,516.247917,None,,,,,,,,,,,,,,,S3,1,2019_Nov_19_1106,test_final,3.1.5,60.18860702
,,,,,,,,,,,,,,,,,,,,,,,,,,,,,,,,5,0,5,0,1,0,1,0,,,,,,,,,,,,,,,,,,,,,,,,,,,,,,,,,,,,,,,,,,,,,,,,,,,,,,,,,,,,,,,,,,,,,,,,,,,,,,,,,,,,,,,,,,,,,,,,,,,,,,,,,,,,,,,,,,,517.5815938,None,,,,,,,,,,,,,S3,1,2019_Nov_19_1106,test_final,3.1.5,60.18860702
Practice,2,(1/1) - 1,0,,,,,,,,,,,,,,,,,,,,,,,,,,,,,5,0,5,0,2,0,2,0,0,0,0,1,,,,,,,,,,,,,,,,,,,,,,,,,,0,,,,,,,,,,,,,,,,,,,,,,,,,,,,,,,,,,,,,,,,,,,,1,,,,,,,,,,,,,,,,,,,,,,,,,,518.9133633,None,['0'],0,[2.356794199993601],518.9133633,None,518.9133633,None,518.9133633,None,521.3580947,None,521.3580947,None,,,,,,,,,,,,,,,S3,1,2019_Nov_19_1106,test_final,3.1.5,60.18860702
,,,,,,,,,,,,,,,,,,,,,,,,,,,,,,,,5,0,5,0,2,0,2,0,,,,,,,,,,,,,,,,,,,,,,,,,,,,,,,,,,,,,,,,,,,,,,,,,,,,,,,,,,,,,,,,,,,,,,,,,,,,,,,,,,,,,,,,,,,,,,,,,,,,,,,,,,,,,,,,,,,522.6932495,None,,,,,,,,,,,,,S3,1,2019_Nov_19_1106,test_final,3.1.5,60.18860702
Practice,8,(3/3) + 5,6,,,,,,,,,,,,,,,,,,,,,,,,,,,,,5,0,5,0,3,0,3,0,0,0,0,7,,,,,,,,,,,,,,,,,,,,,,,,,,6,,,,,,,,,,,,,,,,,,,,,,,,,,,,,,,,,,,,,,,,,,,,1,,,,,,,,,,,,,,,,,,,,,,,,,,524.0252369,None,['6'],0,[2.7112226000026567],524.0252369,None,524.0252369,None,524.0252369,None,526.8381231,None,526.8381231,None,,,,,,,,,,,,,,,S3,1,2019_Nov_19_1106,test_final,3.1.5,60.18860702
,,,,,,,,,,,,,,,,,,,,,,,,,,,,,,,,5,0,5,0,3,0,3,0,,,,,,,,,,,,,,,,,,,,,,,,,,,,,,,,,,,,,,,,,,,,,,,,,,,,,,,,,,,,,,,,,,,,,,,,,,,,,,,,,,,,,,,,,,,,,,,,,,,,,,,,,,,,,,,,,,,528.1878717,None,,,,,,,,,,,,,S3,1,2019_Nov_19_1106,test_final,3.1.5,60.18860702
Practice,7,(4x6) - 17,7,,,,,,,,,,,,,,,,,,,,,,,,,,,,,5,0,5,0,4,0,4,0,0,0,0,6,,,,,,,,,,,,,,,,,,,,,,,,,,7,,,,,,,,,,,,,,,,,,,,,,,,,,,,,,,,,,,,,,,,,,,,1,,,,,,,,,,,,,,,,,,,,,,,,,,529.5032807,None,['7'],0,[3.1246802999958163],529.5032807,None,529.5032807,None,529.5032807,None,532.71467,None,532.71467,None,,,,,,,,,,,,,,,S3,1,2019_Nov_19_1106,test_final,3.1.5,60.18860702
,,,,,,,,,,,,,,,,,,,,,,,,,,,,,,,,5,0,5,0,4,0,4,0,,,,,,,,,,,,,,,,,,,,,,,,,,,,,,,,,,,,,,,,,,,,,,,,,,,,,,,,,,,,,,,,,,,,,,,,,,,,,,,,,,,,,,,,,,,,,,,,,,,,,,,,,,,,,,,,,,,534.0654127,None,,,,,,,,,,,,,S3,1,2019_Nov_19_1106,test_final,3.1.5,60.18860702
Practice,10,(8/4) + 3,5,,,,,,,,,,,,,,,,,,,,,,,,,,,,,5,0,5,0,5,0,5,0,0,0,0,9,,,,,,,,,,,,,,,,,,,,,,,,,,5,,,,,,,,,,,,,,,,,,,,,,,,,,,,,,,,,,,,,,,,,,,,1,,,,,,,,,,,,,,,,,,,,,,,,,,535.3808558,None,['5'],0,[1.47000040000421],535.3808558,None,535.3808558,None,535.3808558,None,536.9428448,None,536.9428448,None,,,,,,,,,,,,,,,S3,1,2019_Nov_19_1106,test_final,3.1.5,60.18860702
,,,,,,,,,,,,,,,,,,,,,,,,,,,,,,,,5,0,5,0,5,0,5,0,,,,,,,,,,,,,,,,,,,,,,,,,,,,,,,,,,,,,,,,,,,,,,,,,,,,,,,,,,,,,,,,,,,,,,,,,,,,,,,,,,,,,,,,,,,,,,,,,,,,,,,,,,,,,,,,,,,538.2947674,None,,,,,,,,,,,,,S3,1,2019_Nov_19_1106,test_final,3.1.5,60.18860702
Practice,5,(3/3) + 2,3,,,,,,,,,,,,,,,,,,,,,,,,,,,,,5,0,5,0,6,0,6,0,0,0,0,4,,,,,,,,,,,,,,,,,,,,,,,,,,3,,,,,,,,,,,,,,,,,,,,,,,,,,,,,,,,,,,,,,,,,,,,1,,,,,,,,,,,,,,,,,,,,,,,,,,539.6101288,None,['3'],0,[3.7952181000000564],539.6101288,None,539.6101288,None,539.6101288,None,543.497516,None,543.497516,None,,,,,,,,,,,,,,,S3,1,2019_Nov_19_1106,test_final,3.1.5,60.18860702
,,,,,,,,,,,,,,,,,,,,,,,,,,,,,,,,5,0,5,0,6,0,6,0,,,,,,,,,,,,,,,,,,,,,,,,,,,,,,,,,,,,,,,,,,,,,,,,,,,,,,,,,,,,,,,,,,,,,,,,,,,,,,,,,,,,,,,,,,,,,,,,,,,,,,,,,,,,,,,,,,,544.8548087,None,,,,,,,,,,,,,S3,1,2019_Nov_19_1106,test_final,3.1.5,60.18860702
,,,,,,,,,,,,,,,,,,,,,,,,,,,,,,,,5,0,5,0,,,,,,,,,,,,,,,,,,,,,,,,,,,,,,,,,,,,,,,,,,,,,,,,,,,,,,,,,,,,,,,,,,,,,,,,,,,,,,,,,,,,,,,,,,,,,,,,,,,,,,,,,,,,,,,,,,,,,,,,,qjrjhtx,"['q', 'j', 'r', 'j', 'h', 't', 'x']",0,"[1.6590365000010934, 1.946502299993881, 2.336628999997629, 2.9954735999926925, 4.015384199999971, 4.275806799996644, 4.853481400001328, 5.243568399993819]",546.1371786,None,546.1371786,None,0,QVRJHTX,546.1371786,None,S3,1,2019_Nov_19_1106,test_final,3.1.5,60.18860702
Practice,3,(7x2) - 5,9,,,,,,,,,,,,,,,,,,,,,,,,,,,,,6,0,6,0,0,0,0,0,0,0,0,2,,,,,,,,,,,,,,,,,,,,,,,,,,9,,,,,,,,,,,,,,,,,,,,,,,,,,,,,,,,,,,,,,,,,,,,1,,,,,,,,,,,,,,,,,,,,,,,,,,551.9645979,None,['9'],0,[1.7162682999914978],551.9645979,None,551.9645979,None,551.9645979,None,553.7607167,None,553.7607167,None,,,,,,,,,,,,,,,S3,1,2019_Nov_19_1106,test_final,3.1.5,60.18860702
,,,,,,,,,,,,,,,,,,,,,,,,,,,,,,,,6,0,6,0,0,0,0,0,,,,,,,,,,,,,,,,,,,,,,,,,,,,,,,,,,,,,,,,,,,,,,,,,,,,,,,,,,,,,,,,,,,,,,,,,,,,,,,,,,,,,,,,,,,,,,,,,,,,,,,,,,,,,,,,,,,555.1113189,None,,,,,,,,,,,,,S3,1,2019_Nov_19_1106,test_final,3.1.5,60.18860702
Practice,8,(3/3) + 5,6,,,,,,,,,,,,,,,,,,,,,,,,,,,,,6,0,6,0,1,0,1,0,0,0,0,7,,,,,,,,,,,,,,,,,,,,,,,,,,6,,,,,,,,,,,,,,,,,,,,,,,,,,,,,,,,,,,,,,,,,,,,1,,,,,,,,,,,,,,,,,,,,,,,,,,556.4268405,None,['6'],0,[1.643299699993804],556.4268405,None,556.4268405,None,556.4268405,None,558.1362883,None,558.1362883,None,,,,,,,,,,,,,,,S3,1,2019_Nov_19_1106,test_final,3.1.5,60.18860702
,,,,,,,,,,,,,,,,,,,,,,,,,,,,,,,,6,0,6,0,1,0,1,0,,,,,,,,,,,,,,,,,,,,,,,,,,,,,,,,,,,,,,,,,,,,,,,,,,,,,,,,,,,,,,,,,,,,,,,,,,,,,,,,,,,,,,,,,,,,,,,,,,,,,,,,,,,,,,,,,,,559.4899393,None,,,,,,,,,,,,,S3,1,2019_Nov_19_1106,test_final,3.1.5,60.18860702
Practice,15,(9/3) - 2,1,,,,,,,,,,,,,,,,,,,,,,,,,,,,,6,0,6,0,2,0,2,0,0,0,0,14,,,,,,,,,,,,,,,,,,,,,,,,,,1,,,,,,,,,,,,,,,,,,,,,,,,,,,,,,,,,,,,,,,,,,,,1,,,,,,,,,,,,,,,,,,,,,,,,,,560.8392362,None,['1'],0,[1.3336424000008265],560.8392362,None,560.8392362,None,560.8392362,None,562.2582804,None,562.2582804,None,,,,,,,,,,,,,,,S3,1,2019_Nov_19_1106,test_final,3.1.5,60.18860702
,,,,,,,,,,,,,,,,,,,,,,,,,,,,,,,,6,0,6,0,2,0,2,0,,,,,,,,,,,,,,,,,,,,,,,,,,,,,,,,,,,,,,,,,,,,,,,,,,,,,,,,,,,,,,,,,,,,,,,,,,,,,,,,,,,,,,,,,,,,,,,,,,,,,,,,,,,,,,,,,,,563.6032269,None,,,,,,,,,,,,,S3,1,2019_Nov_19_1106,test_final,3.1.5,60.18860702
Practice,3,(7x2) - 5,9,,,,,,,,,,,,,,,,,,,,,,,,,,,,,6,0,6,0,3,0,3,0,0,0,0,2,,,,,,,,,,,,,,,,,,,,,,,,,,9,,,,,,,,,,,,,,,,,,,,,,,,,,,,,,,,,,,,,,,,,,,,1,,,,,,,,,,,,,,,,,,,,,,,,,,564.9188044,None,['9'],0,[1.6120839999930467],564.9188044,None,564.9188044,None,564.9188044,None,566.6101231,None,566.6101231,None,,,,,,,,,,,,,,,S3,1,2019_Nov_19_1106,test_final,3.1.5,60.18860702
,,,,,,,,,,,,,,,,,,,,,,,,,,,,,,,,6,0,6,0,3,0,3,0,,,,,,,,,,,,,,,,,,,,,,,,,,,,,,,,,,,,,,,,,,,,,,,,,,,,,,,,,,,,,,,,,,,,,,,,,,,,,,,,,,,,,,,,,,,,,,,,,,,,,,,,,,,,,,,,,,,567.9654745,None,,,,,,,,,,,,,S3,1,2019_Nov_19_1106,test_final,3.1.5,60.18860702
Practice,2,(1/1) - 1,0,,,,,,,,,,,,,,,,,,,,,,,,,,,,,6,0,6,0,4,0,4,0,0,0,0,1,,,,,,,,,,,,,,,,,,,,,,,,,,0,,,,,,,,,,,,,,,,,,,,,,,,,,,,,,,,,,,,,,,,,,,,1,,,,,,,,,,,,,,,,,,,,,,,,,,569.2809423,None,['0'],0,[1.5974942000029841],569.2809423,None,569.2809423,None,569.2809423,None,570.961588,None,570.961588,None,,,,,,,,,,,,,,,S3,1,2019_Nov_19_1106,test_final,3.1.5,60.18860702
,,,,,,,,,,,,,,,,,,,,,,,,,,,,,,,,6,0,6,0,4,0,4,0,,,,,,,,,,,,,,,,,,,,,,,,,,,,,,,,,,,,,,,,,,,,,,,,,,,,,,,,,,,,,,,,,,,,,,,,,,,,,,,,,,,,,,,,,,,,,,,,,,,,,,,,,,,,,,,,,,,572.3114092,None,,,,,,,,,,,,,S3,1,2019_Nov_19_1106,test_final,3.1.5,60.18860702
Practice,9,(4/2) + 5,7,,,,,,,,,,,,,,,,,,,,,,,,,,,,,6,0,6,0,5,0,5,0,0,0,0,8,,,,,,,,,,,,,,,,,,,,,,,,,,7,,,,,,,,,,,,,,,,,,,,,,,,,,,,,,,,,,,,,,,,,,,,1,,,,,,,,,,,,,,,,,,,,,,,,,,573.6266592,None,['7'],0,[4.115132899998571],573.6266592,None,573.6266592,None,573.6266592,None,577.8207786,None,577.8207786,None,,,,,,,,,,,,,,,S3,1,2019_Nov_19_1106,test_final,3.1.5,60.18860702
,,,,,,,,,,,,,,,,,,,,,,,,,,,,,,,,6,0,6,0,5,0,5,0,,,,,,,,,,,,,,,,,,,,,,,,,,,,,,,,,,,,,,,,,,,,,,,,,,,,,,,,,,,,,,,,,,,,,,,,,,,,,,,,,,,,,,,,,,,,,,,,,,,,,,,,,,,,,,,,,,,579.171533,None,,,,,,,,,,,,,S3,1,2019_Nov_19_1106,test_final,3.1.5,60.18860702
Practice,10,(8/4) + 3,5,,,,,,,,,,,,,,,,,,,,,,,,,,,,,6,0,6,0,6,0,6,0,0,0,0,9,,,,,,,,,,,,,,,,,,,,,,,,,,5,,,,,,,,,,,,,,,,,,,,,,,,,,,,,,,,,,,,,,,,,,,,1,,,,,,,,,,,,,,,,,,,,,,,,,,580.4863117,None,['5'],0,[3.0173416000034194],580.4863117,None,580.4863117,None,580.4863117,None,583.5922964,None,583.5922964,None,,,,,,,,,,,,,,,S3,1,2019_Nov_19_1106,test_final,3.1.5,60.18860702
,,,,,,,,,,,,,,,,,,,,,,,,,,,,,,,,6,0,6,0,6,0,6,0,,,,,,,,,,,,,,,,,,,,,,,,,,,,,,,,,,,,,,,,,,,,,,,,,,,,,,,,,,,,,,,,,,,,,,,,,,,,,,,,,,,,,,,,,,,,,,,,,,,,,,,,,,,,,,,,,,,584.9489419,None,,,,,,,,,,,,,S3,1,2019_Nov_19_1106,test_final,3.1.5,60.18860702
,,,,,,,,,,,,,,,,,,,,,,,,,,,,,,,,6,0,6,0,,,,,,,,,,,,,,,,,,,,,,,,,,,,,,,,,,,,,,,,,,,,,,,,,,,,,,,,,,,,,,,,,,,,,,,,,,,,,,,,,,,,,,,,,,,,,,,,,,,,,,,,,,,,,,,,,,,,,,,,,rxnzkqt,"['r', 'x', 'n', 'z', 'k', 'q', 't']",0,"[1.1167274000035832, 1.407614099996863, 1.9843074999953387, 2.2539764999964973, 2.695818699998199, 2.819256000002497, 3.292344499990577, 5.307162999990396]",586.2314127,None,586.2314127,None,1,RXNZKQT,586.2314127,None,S3,1,2019_Nov_19_1106,test_final,3.1.5,60.18860702
Practice,12,(8/2) + 4,8,,,,,,,,,,,,,,,,,,,,,,,,,,,,,7,0,7,0,0,0,0,0,0,0,0,11,,,,,,,,,,,,,,,,,,,,,,,,,,6,,,,,,,,,,,,,,,,,,,,,,,,,,,,,,,,,,,,,,,,,,,,0,,,,,,,,,,,,,,,,,,,,,,,,,,592.1246811,None,['6'],0,[3.459238199997344],592.1246811,None,592.1246811,None,592.1246811,None,595.6848831,None,595.6848831,None,,,,,,,,,,,,,,,S3,1,2019_Nov_19_1106,test_final,3.1.5,60.18860702
Practice,9,(4/2) + 5,7,,,,,,,,,,,,,,,,,,,,,,,,,,,,,7,0,7,0,0,0,0,0,0,1,1,8,,,,,,,,,,,,,,,,,,,,,,,,,,7,,,,,,,,,,,,,,,,,,,,,,,,,,,,,,,,,,,,,,,,,,,,1,,,,,,,,,,,,,,,,,,,,,,,,,,597.0206444,None,['7'],0,[1.680344199994579],597.0206444,None,597.0206444,None,597.0206444,None,598.7667413,None,598.7667413,None,,,,,,,,,,,,,,,S3,1,2019_Nov_19_1106,test_final,3.1.5,60.18860702
,,,,,,,,,,,,,,,,,,,,,,,,,,,,,,,,7,0,7,0,0,0,0,0,,,,,,,,,,,,,,,,,,,,,,,,,,,,,,,,,,,,,,,,,,,,,,,,,,,,,,,,,,,,,,,,,,,,,,,,,,,,,,,,,,,,,,,,,,,,,,,,,,,,,,,,,,,,,,,,,,,600.0843825,None,,,,,,,,,,,,,S3,1,2019_Nov_19_1106,test_final,3.1.5,60.18860702
Practice,9,(4/2) + 5,7,,,,,,,,,,,,,,,,,,,,,,,,,,,,,7,0,7,0,1,0,1,0,0,0,0,8,,,,,,,,,,,,,,,,,,,,,,,,,,7,,,,,,,,,,,,,,,,,,,,,,,,,,,,,,,,,,,,,,,,,,,,1,,,,,,,,,,,,,,,,,,,,,,,,,,601.4161404,None,['7'],0,[2.793390899998485],601.4161404,None,601.4161404,None,601.4161404,None,604.2965148,None,604.2965148,None,,,,,,,,,,,,,,,S3,1,2019_Nov_19_1106,test_final,3.1.5,60.18860702
,,,,,,,,,,,,,,,,,,,,,,,,,,,,,,,,7,0,7,0,1,0,1,0,,,,,,,,,,,,,,,,,,,,,,,,,,,,,,,,,,,,,,,,,,,,,,,,,,,,,,,,,,,,,,,,,,,,,,,,,,,,,,,,,,,,,,,,,,,,,,,,,,,,,,,,,,,,,,,,,,,605.6453977,None,,,,,,,,,,,,,S3,1,2019_Nov_19_1106,test_final,3.1.5,60.18860702
Practice,12,(8/2) + 4,8,,,,,,,,,,,,,,,,,,,,,,,,,,,,,7,0,7,0,2,0,2,0,0,0,0,11,,,,,,,,,,,,,,,,,,,,,,,,,,8,,,,,,,,,,,,,,,,,,,,,,,,,,,,,,,,,,,,,,,,,,,,1,,,,,,,,,,,,,,,,,,,,,,,,,,606.961062,None,['8'],0,[1.6218030000018189],606.961062,None,606.961062,None,606.961062,None,608.6827097,None,608.6827097,None,,,,,,,,,,,,,,,S3,1,2019_Nov_19_1106,test_final,3.1.5,60.18860702
,,,,,,,,,,,,,,,,,,,,,,,,,,,,,,,,7,0,7,0,2,0,2,0,,,,,,,,,,,,,,,,,,,,,,,,,,,,,,,,,,,,,,,,,,,,,,,,,,,,,,,,,,,,,,,,,,,,,,,,,,,,,,,,,,,,,,,,,,,,,,,,,,,,,,,,,,,,,,,,,,,610.0244685,None,,,,,,,,,,,,,S3,1,2019_Nov_19_1106,test_final,3.1.5,60.18860702
Practice,6,(2x6) - 8,4,,,,,,,,,,,,,,,,,,,,,,,,,,,,,7,0,7,0,3,0,3,0,0,0,0,5,,,,,,,,,,,,,,,,,,,,,,,,,,4,,,,,,,,,,,,,,,,,,,,,,,,,,,,,,,,,,,,,,,,,,,,1,,,,,,,,,,,,,,,,,,,,,,,,,,611.3398021,None,['4'],0,[1.6872203999955673],611.3398021,None,611.3398021,None,611.3398021,None,613.1150993,None,613.1150993,None,,,,,,,,,,,,,,,S3,1,2019_Nov_19_1106,test_final,3.1.5,60.18860702
,,,,,,,,,,,,,,,,,,,,,,,,,,,,,,,,7,0,7,0,3,0,3,0,,,,,,,,,,,,,,,,,,,,,,,,,,,,,,,,,,,,,,,,,,,,,,,,,,,,,,,,,,,,,,,,,,,,,,,,,,,,,,,,,,,,,,,,,,,,,,,,,,,,,,,,,,,,,,,,,,,614.4701082,None,,,,,,,,,,,,,S3,1,2019_Nov_19_1106,test_final,3.1.5,60.18860702
Practice,13,(3x8) - 19 ,5,,,,,,,,,,,,,,,,,,,,,,,,,,,,,7,0,7,0,4,0,4,0,0,0,0,12,,,,,,,,,,,,,,,,,,,,,,,,,,5,,,,,,,,,,,,,,,,,,,,,,,,,,,,,,,,,,,,,,,,,,,,1,,,,,,,,,,,,,,,,,,,,,,,,,,615.7854148,None,['5'],0,[1.2664572999929078],615.7854148,None,615.7854148,None,615.7854148,None,617.122128,None,617.122128,None,,,,,,,,,,,,,,,S3,1,2019_Nov_19_1106,test_final,3.1.5,60.18860702
,,,,,,,,,,,,,,,,,,,,,,,,,,,,,,,,7,0,7,0,4,0,4,0,,,,,,,,,,,,,,,,,,,,,,,,,,,,,,,,,,,,,,,,,,,,,,,,,,,,,,,,,,,,,,,,,,,,,,,,,,,,,,,,,,,,,,,,,,,,,,,,,,,,,,,,,,,,,,,,,,,618.46609,None,,,,,,,,,,,,,S3,1,2019_Nov_19_1106,test_final,3.1.5,60.18860702
Practice,6,(2x6) - 8,4,,,,,,,,,,,,,,,,,,,,,,,,,,,,,7,0,7,0,5,0,5,0,0,0,0,5,,,,,,,,,,,,,,,,,,,,,,,,,,4,,,,,,,,,,,,,,,,,,,,,,,,,,,,,,,,,,,,,,,,,,,,1,,,,,,,,,,,,,,,,,,,,,,,,,,619.7649263,None,['4'],0,[1.2581921000091825],619.7649263,None,619.7649263,None,619.7649263,None,621.1202926,None,621.1202926,None,,,,,,,,,,,,,,,S3,1,2019_Nov_19_1106,test_final,3.1.5,60.18860702
,,,,,,,,,,,,,,,,,,,,,,,,,,,,,,,,7,0,7,0,5,0,5,0,,,,,,,,,,,,,,,,,,,,,,,,,,,,,,,,,,,,,,,,,,,,,,,,,,,,,,,,,,,,,,,,,,,,,,,,,,,,,,,,,,,,,,,,,,,,,,,,,,,,,,,,,,,,,,,,,,,622.462192,None,,,,,,,,,,,,,S3,1,2019_Nov_19_1106,test_final,3.1.5,60.18860702
Practice,13,(3x8) - 19 ,5,,,,,,,,,,,,,,,,,,,,,,,,,,,,,7,0,7,0,6,0,6,0,0,0,0,12,,,,,,,,,,,,,,,,,,,,,,,,,,5,,,,,,,,,,,,,,,,,,,,,,,,,,,,,,,,,,,,,,,,,,,,1,,,,,,,,,,,,,,,,,,,,,,,,,,623.7776215,None,['5'],0,[1.4656817000068258],623.7776215,None,623.7776215,None,623.7776215,None,625.3063577,None,625.3063577,None,,,,,,,,,,,,,,,S3,1,2019_Nov_19_1106,test_final,3.1.5,60.18860702
,,,,,,,,,,,,,,,,,,,,,,,,,,,,,,,,7,0,7,0,6,0,6,0,,,,,,,,,,,,,,,,,,,,,,,,,,,,,,,,,,,,,,,,,,,,,,,,,,,,,,,,,,,,,,,,,,,,,,,,,,,,,,,,,,,,,,,,,,,,,,,,,,,,,,,,,,,,,,,,,,,626.6415293,None,,,,,,,,,,,,,S3,1,2019_Nov_19_1106,test_final,3.1.5,60.18860702
Practice,15,(9/3) - 2,1,,,,,,,,,,,,,,,,,,,,,,,,,,,,,7,0,7,0,7,0,7,0,0,0,0,14,,,,,,,,,,,,,,,,,,,,,,,,,,1,,,,,,,,,,,,,,,,,,,,,,,,,,,,,,,,,,,,,,,,,,,,1,,,,,,,,,,,,,,,,,,,,,,,,,,627.9734471,None,['1'],0,[4.221107799996389],627.9734471,None,627.9734471,None,627.9734471,None,632.2903759,None,632.2903759,None,,,,,,,,,,,,,,,S3,1,2019_Nov_19_1106,test_final,3.1.5,60.18860702
,,,,,,,,,,,,,,,,,,,,,,,,,,,,,,,,7,0,7,0,7,0,7,0,,,,,,,,,,,,,,,,,,,,,,,,,,,,,,,,,,,,,,,,,,,,,,,,,,,,,,,,,,,,,,,,,,,,,,,,,,,,,,,,,,,,,,,,,,,,,,,,,,,,,,,,,,,,,,,,,,,633.6345909,None,,,,,,,,,,,,,S3,1,2019_Nov_19_1106,test_final,3.1.5,60.18860702
,,,,,,,,,,,,,,,,,,,,,,,,,,,,,,,,7,0,7,0,,,,,,,,,,,,,,,,,,,,,,,,,,,,,,,,,,,,,,,,,,,,,,,,,,,,,,,,,,,,,,,,,,,,,,,,,,,,,,,,,,,,,,,,,,,,,,,,,,,,,,,,,,,,,,,,,,,,,,,,,vnrjxlz,"['v', 'n', 'r', 'j', 'x', 'l', 'z']",0,"[1.2181999000022188, 1.7418825999920955, 2.102249000003212, 2.4485897999984445, 2.759958499998902, 3.1133702999941306, 3.412216400000034, 4.553329300004407]",634.9169315,None,634.9169315,None,0,VNRJZLXK,634.9169315,None,S3,1,2019_Nov_19_1106,test_final,3.1.5,60.18860702
Practice,1,(1x2) + 1,3,,,,,,,,,,,,,,,,,,,,,,,,,,,,,8,0,8,0,0,0,0,0,0,0,0,0,,,,,,,,,,,,,,,,,,,,,,,,,,3,,,,,,,,,,,,,,,,,,,,,,,,,,,,,,,,,,,,,,,,,,,,1,,,,,,,,,,,,,,,,,,,,,,,,,,640.061783,None,['3'],0,[1.6858341000042856],640.061783,None,640.061783,None,640.061783,None,641.8391254,None,641.8391254,None,,,,,,,,,,,,,,,S3,1,2019_Nov_19_1106,test_final,3.1.5,60.18860702
,,,,,,,,,,,,,,,,,,,,,,,,,,,,,,,,8,0,8,0,0,0,0,0,,,,,,,,,,,,,,,,,,,,,,,,,,,,,,,,,,,,,,,,,,,,,,,,,,,,,,,,,,,,,,,,,,,,,,,,,,,,,,,,,,,,,,,,,,,,,,,,,,,,,,,,,,,,,,,,,,,643.1919188,None,,,,,,,,,,,,,S3,1,2019_Nov_19_1106,test_final,3.1.5,60.18860702
Practice,6,(2x6) - 8,4,,,,,,,,,,,,,,,,,,,,,,,,,,,,,8,0,8,0,1,0,1,0,0,0,0,5,,,,,,,,,,,,,,,,,,,,,,,,,,4,,,,,,,,,,,,,,,,,,,,,,,,,,,,,,,,,,,,,,,,,,,,1,,,,,,,,,,,,,,,,,,,,,,,,,,644.5073568,None,['4'],0,[1.2156344999966677],644.5073568,None,644.5073568,None,644.5073568,None,645.7927066,None,645.7927066,None,,,,,,,,,,,,,,,S3,1,2019_Nov_19_1106,test_final,3.1.5,60.18860702
,,,,,,,,,,,,,,,,,,,,,,,,,,,,,,,,8,0,8,0,1,0,1,0,,,,,,,,,,,,,,,,,,,,,,,,,,,,,,,,,,,,,,,,,,,,,,,,,,,,,,,,,,,,,,,,,,,,,,,,,,,,,,,,,,,,,,,,,,,,,,,,,,,,,,,,,,,,,,,,,,,647.1381139,None,,,,,,,,,,,,,S3,1,2019_Nov_19_1106,test_final,3.1.5,60.18860702
Practice,15,(9/3) - 2,1,,,,,,,,,,,,,,,,,,,,,,,,,,,,,8,0,8,0,2,0,2,0,0,0,0,14,,,,,,,,,,,,,,,,,,,,,,,,,,1,,,,,,,,,,,,,,,,,,,,,,,,,,,,,,,,,,,,,,,,,,,,1,,,,,,,,,,,,,,,,,,,,,,,,,,648.4537758,None,['1'],0,[1.001548800006276],648.4537758,None,648.4537758,None,648.4537758,None,649.5518497,None,649.5518497,None,,,,,,,,,,,,,,,S3,1,2019_Nov_19_1106,test_final,3.1.5,60.18860702
,,,,,,,,,,,,,,,,,,,,,,,,,,,,,,,,8,0,8,0,2,0,2,0,,,,,,,,,,,,,,,,,,,,,,,,,,,,,,,,,,,,,,,,,,,,,,,,,,,,,,,,,,,,,,,,,,,,,,,,,,,,,,,,,,,,,,,,,,,,,,,,,,,,,,,,,,,,,,,,,,,650.8844292,None,,,,,,,,,,,,,S3,1,2019_Nov_19_1106,test_final,3.1.5,60.18860702
Practice,11,(5x3) - 7,8,,,,,,,,,,,,,,,,,,,,,,,,,,,,,8,0,8,0,3,0,3,0,0,0,0,10,,,,,,,,,,,,,,,,,,,,,,,,,,6,,,,,,,,,,,,,,,,,,,,,,,,,,,,,,,,,,,,,,,,,,,,0,,,,,,,,,,,,,,,,,,,,,,,,,,652.2164276,None,['6'],0,[1.855993999997736],652.2164276,None,652.2164276,None,652.2164276,None,654.1761014,None,654.1761014,None,,,,,,,,,,,,,,,S3,1,2019_Nov_19_1106,test_final,3.1.5,60.18860702
Practice,15,(9/3) - 2,1,,,,,,,,,,,,,,,,,,,,,,,,,,,,,8,0,8,0,3,0,3,0,0,1,1,14,,,,,,,,,,,,,,,,,,,,,,,,,,1,,,,,,,,,,,,,,,,,,,,,,,,,,,,,,,,,,,,,,,,,,,,1,,,,,,,,,,,,,,,,,,,,,,,,,,655.512746,None,['1'],0,[1.4290770999941742],655.512746,None,655.512746,None,655.512746,None,657.0096984,None,657.0096984,None,,,,,,,,,,,,,,,S3,1,2019_Nov_19_1106,test_final,3.1.5,60.18860702
,,,,,,,,,,,,,,,,,,,,,,,,,,,,,,,,8,0,8,0,3,0,3,0,,,,,,,,,,,,,,,,,,,,,,,,,,,,,,,,,,,,,,,,,,,,,,,,,,,,,,,,,,,,,,,,,,,,,,,,,,,,,,,,,,,,,,,,,,,,,,,,,,,,,,,,,,,,,,,,,,,658.3270508,None,,,,,,,,,,,,,S3,1,2019_Nov_19_1106,test_final,3.1.5,60.18860702
Practice,6,(2x6) - 8,4,,,,,,,,,,,,,,,,,,,,,,,,,,,,,8,0,8,0,4,0,4,0,0,0,0,5,,,,,,,,,,,,,,,,,,,,,,,,,,4,,,,,,,,,,,,,,,,,,,,,,,,,,,,,,,,,,,,,,,,,,,,1,,,,,,,,,,,,,,,,,,,,,,,,,,659.6590921,None,['4'],0,[1.1630179000057979],659.6590921,None,659.6590921,None,659.6590921,None,660.9152564,None,660.9152564,None,,,,,,,,,,,,,,,S3,1,2019_Nov_19_1106,test_final,3.1.5,60.18860702
,,,,,,,,,,,,,,,,,,,,,,,,,,,,,,,,8,0,8,0,4,0,4,0,,,,,,,,,,,,,,,,,,,,,,,,,,,,,,,,,,,,,,,,,,,,,,,,,,,,,,,,,,,,,,,,,,,,,,,,,,,,,,,,,,,,,,,,,,,,,,,,,,,,,,,,,,,,,,,,,,,662.2565587,None,,,,,,,,,,,,,S3,1,2019_Nov_19_1106,test_final,3.1.5,60.18860702
Practice,8,(3/3) + 5,6,,,,,,,,,,,,,,,,,,,,,,,,,,,,,8,0,8,0,5,0,5,0,0,0,0,7,,,,,,,,,,,,,,,,,,,,,,,,,,6,,,,,,,,,,,,,,,,,,,,,,,,,,,,,,,,,,,,,,,,,,,,1,,,,,,,,,,,,,,,,,,,,,,,,,,663.5554373,None,['6'],0,[2.1806478000071365],663.5554373,None,663.5554373,None,663.5554373,None,665.8252621,None,665.8252621,None,,,,,,,,,,,,,,,S3,1,2019_Nov_19_1106,test_final,3.1.5,60.18860702
,,,,,,,,,,,,,,,,,,,,,,,,,,,,,,,,8,0,8,0,5,0,5,0,,,,,,,,,,,,,,,,,,,,,,,,,,,,,,,,,,,,,,,,,,,,,,,,,,,,,,,,,,,,,,,,,,,,,,,,,,,,,,,,,,,,,,,,,,,,,,,,,,,,,,,,,,,,,,,,,,,667.1517773,None,,,,,,,,,,,,,S3,1,2019_Nov_19_1106,test_final,3.1.5,60.18860702
Practice,1,(1x2) + 1,3,,,,,,,,,,,,,,,,,,,,,,,,,,,,,8,0,8,0,6,0,6,0,0,0,0,0,,,,,,,,,,,,,,,,,,,,,,,,,,3,,,,,,,,,,,,,,,,,,,,,,,,,,,,,,,,,,,,,,,,,,,,1,,,,,,,,,,,,,,,,,,,,,,,,,,668.4839634,None,['3'],0,[2.657703200005926],668.4839634,None,668.4839634,None,668.4839634,None,671.2377668,None,671.2377668,None,,,,,,,,,,,,,,,S3,1,2019_Nov_19_1106,test_final,3.1.5,60.18860702
,,,,,,,,,,,,,,,,,,,,,,,,,,,,,,,,8,0,8,0,6,0,6,0,,,,,,,,,,,,,,,,,,,,,,,,,,,,,,,,,,,,,,,,,,,,,,,,,,,,,,,,,,,,,,,,,,,,,,,,,,,,,,,,,,,,,,,,,,,,,,,,,,,,,,,,,,,,,,,,,,,672.5632204,None,,,,,,,,,,,,,S3,1,2019_Nov_19_1106,test_final,3.1.5,60.18860702
Practice,2,(1/1) - 1,0,,,,,,,,,,,,,,,,,,,,,,,,,,,,,8,0,8,0,7,0,7,0,0,0,0,1,,,,,,,,,,,,,,,,,,,,,,,,,,0,,,,,,,,,,,,,,,,,,,,,,,,,,,,,,,,,,,,,,,,,,,,1,,,,,,,,,,,,,,,,,,,,,,,,,,673.8953726,None,['0'],0,[2.2737923999957275],673.8953726,None,673.8953726,None,673.8953726,None,676.2654282,None,676.2654282,None,,,,,,,,,,,,,,,S3,1,2019_Nov_19_1106,test_final,3.1.5,60.18860702
,,,,,,,,,,,,,,,,,,,,,,,,,,,,,,,,8,0,8,0,7,0,7,0,,,,,,,,,,,,,,,,,,,,,,,,,,,,,,,,,,,,,,,,,,,,,,,,,,,,,,,,,,,,,,,,,,,,,,,,,,,,,,,,,,,,,,,,,,,,,,,,,,,,,,,,,,,,,,,,,,,677.6081697,None,,,,,,,,,,,,,S3,1,2019_Nov_19_1106,test_final,3.1.5,60.18860702
,,,,,,,,,,,,,,,,,,,,,,,,,,,,,,,,8,0,8,0,,,,,,,,,,,,,,,,,,,,,,,,,,,,,,,,,,,,,,,,,,,,,,,,,,,,,,,,,,,,,,,,,,,,,,,,,,,,,,,,,,,,,,,,,,,,,,,,,,,,,,,,,,,,,,,,,,,,,,,,,atrshkl,"['a', 't', 'r', 's', 'h', 'k', 'l']",0,"[1.2138003000000026, 1.8469212999916635, 2.1720452000008663, 2.4193627999920864, 2.8109173999982886, 3.2045133999927202, 3.4651233999902615, 3.8020954999956302]",678.890412,None,678.890412,None,0,QTRSHKLZ,678.890412,None,S3,1,2019_Nov_19_1106,test_final,3.1.5,60.18860702
