Task,Trial,Problem,Operation_answer,next_level.thisRepN,next_level.thisTrialN,next_level.thisN,next_level.thisIndex,next_letter.thisRepN,next_letter.thisTrialN,next_letter.thisN,next_letter.thisIndex,repeat_practice.thisRepN,repeat_practice.thisTrialN,repeat_practice.thisN,repeat_practice.thisIndex,trials.thisRepN,trials.thisTrialN,trials.thisN,trials.thisIndex,span_recall_prac.thisRepN,span_recall_prac.thisTrialN,span_recall_prac.thisN,span_recall_prac.thisIndex,span_size_prac.thisRepN,span_size_prac.thisTrialN,span_size_prac.thisN,span_size_prac.thisIndex,repeat_if_wrong_prac.thisRepN,repeat_if_wrong_prac.thisTrialN,repeat_if_wrong_prac.thisN,repeat_if_wrong_prac.thisIndex,span_recall.thisRepN,span_recall.thisTrialN,span_recall.thisN,span_recall.thisIndex,span_size.thisRepN,span_size.thisTrialN,span_size.thisN,span_size.thisIndex,repeat_if_wrong.thisRepN,repeat_if_wrong.thisTrialN,repeat_if_wrong.thisN,repeat_if_wrong.thisIndex,instructions_2.started,instructions_2.stopped,key_resp_4.keys,key_resp_4.rt,key_resp_4.started,key_resp_4.stopped,text_2.started,text_2.stopped,simple_recall,key_resp_5.keys,key_resp_5.rt,key_resp_5.started,key_resp_5.stopped,text_feedback.started,text_feedback.stopped,simple_recall_corr,simple_recall_corrkeys,instructions_3.started,instructions_3.stopped,instructions.started,instructions.stopped,key_resp_2.keys,key_resp_2.rt,key_resp_2.started,key_resp_2.stopped,digit_answer,operation.started,operation.stopped,key_resp.keys,key_resp.corr,key_resp.rt,key_resp.started,key_resp.stopped,operation_feedback.started,operation_feedback.stopped,RT_list,instructions_8.started,instructions_8.stopped,feedback_msg.started,feedback_msg.stopped,processing_score,sumRT,meanRT,sumdiff,sd,RT,feedback_msg_2.started,feedback_msg_2.stopped,key_resp_3.keys,key_resp_3.rt,key_resp_3.started,key_resp_3.stopped,instructions_4.started,instructions_4.stopped,key_resp_6.keys,key_resp_6.rt,key_resp_6.started,key_resp_6.stopped,operation_3.started,operation_3.stopped,key_resp_11.keys,key_resp_11.corr,key_resp_11.rt,key_resp_11.started,key_resp_11.stopped,operation_feedback_2.started,operation_feedback_2.stopped,instructions_9.started,instructions_9.stopped,operation_correct,feedback_msg_4.started,feedback_msg_4.stopped,operation_4.started,operation_4.stopped,text_3.started,text_3.stopped,complex_recall_prac,key_resp_9.keys,key_resp_9.corr,key_resp_9.rt,key_resp_9.started,key_resp_9.stopped,text_feedback_3.started,text_feedback_3.stopped,instructions_6.started,instructions_6.stopped,complex_prac_corr,feedback_msg_3.started,feedback_msg_3.stopped,instructions_7.started,instructions_7.stopped,key_resp_10.keys,key_resp_10.rt,key_resp_10.started,key_resp_10.stopped,operation_2.started,operation_2.stopped,key_resp_7.keys,key_resp_7.corr,key_resp_7.rt,key_resp_7.started,key_resp_7.stopped,operation_feedback_3.started,operation_feedback_3.stopped,instructions_10.started,instructions_10.stopped,feedback_msg_5.started,feedback_msg_5.stopped,operation_5.started,operation_5.stopped,text.started,text.stopped,complex_recall,key_resp_8.keys,key_resp_8.corr,key_resp_8.rt,key_resp_8.started,key_resp_8.stopped,text_feedback_2.started,text_feedback_2.stopped,complex_recall_corr,complex_recall_corrkeys,instructions_5.started,instructions_5.stopped,finish.started,finish.stopped,key_resp_12.keys,key_resp_12.rt,key_resp_12.started,key_resp_12.stopped,participant,session,date,expName,psychopyVersion,frameRate
,,,,,,,,,,,,,,,,,,,,,,,,,,,,,,,,,,,,,,,,,,,,28.08161456,None,space,8.633078979,28.08161456,None,,,,,,,,,,,,,,,,,,,,,,,,,,,,,,,,,,,,,,,,,,,,,,,,,,,,,,,,,,,,,,,,,,,,,,,,,,,,,,,,,,,,,,,,,,,,,,,,,,,,,,,,,,,,,,,,,,,,,,,,,,,,,S4,1,2019_Nov_19_1109,test_final,3.2.4,59.98320608
,,,,0,0,0,0,0,0,0,0,,,,,,,,,,,,,,,,,,,,,,,,,,,,,,,,,,,,,,,37.26294421,None,,,,,,,,,,,,,,,,,,,,,,,,,,,,,,,,,,,,,,,,,,,,,,,,,,,,,,,,,,,,,,,,,,,,,,,,,,,,,,,,,,,,,,,,,,,,,,,,,,,,,,,,,,,,,,,,,,,,,,,,,,,S4,1,2019_Nov_19_1109,test_final,3.2.4,59.98320608
,,,,0,0,0,0,1,0,1,0,,,,,,,,,,,,,,,,,,,,,,,,,,,,,,,,,,,,,,,38.55961057,None,,,,,,,,,,,,,,,,,,,,,,,,,,,,,,,,,,,,,,,,,,,,,,,,,,,,,,,,,,,,,,,,,,,,,,,,,,,,,,,,,,,,,,,,,,,,,,,,,,,,,,,,,,,,,,,,,,,,,,,,,,,S4,1,2019_Nov_19_1109,test_final,3.2.4,59.98320608
,,,,1,0,1,0,0,0,0,0,,,,,,,,,,,,,,,,,,,,,,,,,,,,,,,,,,,,,,,43.48741758,None,vs,"['v', 's']","[1.8156142234802246, 2.210160299669951, 3.0862327837385237]",39.85944837,None,39.85944837,None,1,VS,39.85944837,None,,,,,,,,,,,,,,,,,,,,,,,,,,,,,,,,,,,,,,,,,,,,,,,,,,,,,,,,,,,,,,,,,,,,,,,,,,,,,,,,,,,,,,,,,,,,,,,,,,,,,,,,,,,,,,,,S4,1,2019_Nov_19_1109,test_final,3.2.4,59.98320608
,,,,1,0,1,0,1,0,1,0,,,,,,,,,,,,,,,,,,,,,,,,,,,,,,,,,,,,,,,44.770267,44.28715734,,,,,,,,,,,,,,,,,,,,,,,,,,,,,,,,,,,,,,,,,,,,,,,,,,,,,,,,,,,,,,,,,,,,,,,,,,,,,,,,,,,,,,,,,,,,,,,,,,,,,,,,,,,,,,,,,,,,,,,,,,,S4,1,2019_Nov_19_1109,test_final,3.2.4,59.98320608
,,,,2,0,2,0,0,0,0,0,,,,,,,,,,,,,,,,,,,,,,,,,,,,,,,,,,,,,,,49.18207226,None,st,"['s', 't']","[1.4545889548026025, 1.7255791733041406, 2.592618673108518]",46.05193587,None,46.05193587,None,1,ST,46.05193587,None,,,,,,,,,,,,,,,,,,,,,,,,,,,,,,,,,,,,,,,,,,,,,,,,,,,,,,,,,,,,,,,,,,,,,,,,,,,,,,,,,,,,,,,,,,,,,,,,,,,,,,,,,,,,,,,,S4,1,2019_Nov_19_1109,test_final,3.2.4,59.98320608
,,,,2,0,2,0,1,0,1,0,,,,,,,,,,,,,,,,,,,,,,,,,,,,,,,,,,,,,,,50.48038957,49.98746201,,,,,,,,,,,,,,,,,,,,,,,,,,,,,,,,,,,,,,,,,,,,,,,,,,,,,,,,,,,,,,,,,,,,,,,,,,,,,,,,,,,,,,,,,,,,,,,,,,,,,,,,,,,,,,,,,,,,,,,,,,,S4,1,2019_Nov_19_1109,test_final,3.2.4,59.98320608
,,,,2,0,2,0,2,0,2,0,,,,,,,,,,,,,,,,,,,,,,,,,,,,,,,,,,,,,,,51.77910076,51.28580576,,,,,,,,,,,,,,,,,,,,,,,,,,,,,,,,,,,,,,,,,,,,,,,,,,,,,,,,,,,,,,,,,,,,,,,,,,,,,,,,,,,,,,,,,,,,,,,,,,,,,,,,,,,,,,,,,,,,,,,,,,,S4,1,2019_Nov_19_1109,test_final,3.2.4,59.98320608
,,,,3,0,3,0,0,0,0,0,,,,,,,,,,,,,,,,,,,,,,,,,,,,,,,,,,,,,,,56.40783338,None,zrx,"['z', 'r', 'x']","[1.337103041820228, 1.7521530780941248, 2.0589733915403485, 2.816449219826609]",53.06175765,None,53.06175765,None,1,ZRX,53.06175765,None,,,,,,,,,,,,,,,,,,,,,,,,,,,,,,,,,,,,,,,,,,,,,,,,,,,,,,,,,,,,,,,,,,,,,,,,,,,,,,,,,,,,,,,,,,,,,,,,,,,,,,,,,,,,,,,,S4,1,2019_Nov_19_1109,test_final,3.2.4,59.98320608
,,,,3,0,3,0,1,0,1,0,,,,,,,,,,,,,,,,,,,,,,,,,,,,,,,,,,,,,,,57.72317397,57.2238443,,,,,,,,,,,,,,,,,,,,,,,,,,,,,,,,,,,,,,,,,,,,,,,,,,,,,,,,,,,,,,,,,,,,,,,,,,,,,,,,,,,,,,,,,,,,,,,,,,,,,,,,,,,,,,,,,,,,,,,,,,,S4,1,2019_Nov_19_1109,test_final,3.2.4,59.98320608
,,,,3,0,3,0,2,0,2,0,,,,,,,,,,,,,,,,,,,,,,,,,,,,,,,,,,,,,,,59.03790736,None,,,,,,,,,,,,,,,,,,,,,,,,,,,,,,,,,,,,,,,,,,,,,,,,,,,,,,,,,,,,,,,,,,,,,,,,,,,,,,,,,,,,,,,,,,,,,,,,,,,,,,,,,,,,,,,,,,,,,,,,,,,S4,1,2019_Nov_19_1109,test_final,3.2.4,59.98320608
,,,,4,0,4,0,0,0,0,0,,,,,,,,,,,,,,,,,,,,,,,,,,,,,,,,,,,,,,,64.36590302,None,tkj,"['t', 'k', 'j']","[1.8209020644426346, 2.545537634752691, 2.801886852364987, 3.5035198205150664]",60.32033964,None,60.32033964,None,1,TKJ,60.32033964,None,,,,,,,,,,,,,,,,,,,,,,,,,,,,,,,,,,,,,,,,,,,,,,,,,,,,,,,,,,,,,,,,,,,,,,,,,,,,,,,,,,,,,,,,,,,,,,,,,,,,,,,,,,,,,,,,S4,1,2019_Nov_19_1109,test_final,3.2.4,59.98320608
,,,,4,0,4,0,1,0,1,0,,,,,,,,,,,,,,,,,,,,,,,,,,,,,,,,,,,,,,,65.66409868,None,,,,,,,,,,,,,,,,,,,,,,,,,,,,,,,,,,,,,,,,,,,,,,,,,,,,,,,,,,,,,,,,,,,,,,,,,,,,,,,,,,,,,,,,,,,,,,,,,,,,,,,,,,,,,,,,,,,,,,,,,,,S4,1,2019_Nov_19_1109,test_final,3.2.4,59.98320608
,,,,4,0,4,0,2,0,2,0,,,,,,,,,,,,,,,,,,,,,,,,,,,,,,,,,,,,,,,66.96216775,66.46323159,,,,,,,,,,,,,,,,,,,,,,,,,,,,,,,,,,,,,,,,,,,,,,,,,,,,,,,,,,,,,,,,,,,,,,,,,,,,,,,,,,,,,,,,,,,,,,,,,,,,,,,,,,,,,,,,,,,,,,,,,,,S4,1,2019_Nov_19_1109,test_final,3.2.4,59.98320608
,,,,4,0,4,0,3,0,3,0,,,,,,,,,,,,,,,,,,,,,,,,,,,,,,,,,,,,,,,68.24501576,67.76142373,,,,,,,,,,,,,,,,,,,,,,,,,,,,,,,,,,,,,,,,,,,,,,,,,,,,,,,,,,,,,,,,,,,,,,,,,,,,,,,,,,,,,,,,,,,,,,,,,,,,,,,,,,,,,,,,,,,,,,,,,,,S4,1,2019_Nov_19_1109,test_final,3.2.4,59.98320608
,,,,5,0,5,0,0,0,0,0,,,,,,,,,,,,,,,,,,,,,,,,,,,,,,,,,,,,,,,73.20557064,None,lvtz,"['l', 'v', 't', 'z']","[1.2002690467052162, 1.7398894196376204, 2.0634290571324527, 2.3266306766308844, 3.127094367519021]",69.54296177,None,69.54296177,None,1,LVTZ,69.54296177,None,,,,,,,,,,,,,,,,,,,,,,,,,,,,,,,,,,,,,,,,,,,,,,,,,,,,,,,,,,,,,,,,,,,,,,,,,,,,,,,,,,,,,,,,,,,,,,,,,,,,,,,,,,,,,,,,S4,1,2019_Nov_19_1109,test_final,3.2.4,59.98320608
,,,,5,0,5,0,1,0,1,0,,,,,,,,,,,,,,,,,,,,,,,,,,,,,,,,,,,,,,,74.50366475,74.00473741,,,,,,,,,,,,,,,,,,,,,,,,,,,,,,,,,,,,,,,,,,,,,,,,,,,,,,,,,,,,,,,,,,,,,,,,,,,,,,,,,,,,,,,,,,,,,,,,,,,,,,,,,,,,,,,,,,,,,,,,,,,S4,1,2019_Nov_19_1109,test_final,3.2.4,59.98320608
,,,,5,0,5,0,2,0,2,0,,,,,,,,,,,,,,,,,,,,,,,,,,,,,,,,,,,,,,,75.8032811,75.30747724,,,,,,,,,,,,,,,,,,,,,,,,,,,,,,,,,,,,,,,,,,,,,,,,,,,,,,,,,,,,,,,,,,,,,,,,,,,,,,,,,,,,,,,,,,,,,,,,,,,,,,,,,,,,,,,,,,,,,,,,,,,S4,1,2019_Nov_19_1109,test_final,3.2.4,59.98320608
,,,,5,0,5,0,3,0,3,0,,,,,,,,,,,,,,,,,,,,,,,,,,,,,,,,,,,,,,,77.10131738,None,,,,,,,,,,,,,,,,,,,,,,,,,,,,,,,,,,,,,,,,,,,,,,,,,,,,,,,,,,,,,,,,,,,,,,,,,,,,,,,,,,,,,,,,,,,,,,,,,,,,,,,,,,,,,,,,,,,,,,,,,,,S4,1,2019_Nov_19_1109,test_final,3.2.4,59.98320608
,,,,6,0,6,0,0,0,0,0,,,,,,,,,,,,,,,,,,,,,,,,,,,,,,,,,,,,,,,82.07936804,None,tsnv,"['t', 's', 'n', 'v']","[1.3481279574334621, 1.6818303628824651, 2.0506957126781344, 2.4167923158966005, 3.159214581362903]",78.38390551,None,78.38390551,None,1,TSNV,78.38390551,None,,,,,,,,,,,,,,,,,,,,,,,,,,,,,,,,,,,,,,,,,,,,,,,,,,,,,,,,,,,,,,,,,,,,,,,,,,,,,,,,,,,,,,,,,,,,,,,,,,,,,,,,,,,,,,,,S4,1,2019_Nov_19_1109,test_final,3.2.4,59.98320608
,,,,6,0,6,0,1,0,1,0,,,,,,,,,,,,,,,,,,,,,,,,,,,,,,,,,,,,,,,83.37817972,82.87759191,,,,,,,,,,,,,,,,,,,,,,,,,,,,,,,,,,,,,,,,,,,,,,,,,,,,,,,,,,,,,,,,,,,,,,,,,,,,,,,,,,,,,,,,,,,,,,,,,,,,,,,,,,,,,,,,,,,,,,,,,,,S4,1,2019_Nov_19_1109,test_final,3.2.4,59.98320608
,,,,6,0,6,0,2,0,2,0,,,,,,,,,,,,,,,,,,,,,,,,,,,,,,,,,,,,,,,84.69299139,None,,,,,,,,,,,,,,,,,,,,,,,,,,,,,,,,,,,,,,,,,,,,,,,,,,,,,,,,,,,,,,,,,,,,,,,,,,,,,,,,,,,,,,,,,,,,,,,,,,,,,,,,,,,,,,,,,,,,,,,,,,,S4,1,2019_Nov_19_1109,test_final,3.2.4,59.98320608
,,,,6,0,6,0,3,0,3,0,,,,,,,,,,,,,,,,,,,,,,,,,,,,,,,,,,,,,,,85.99171915,None,,,,,,,,,,,,,,,,,,,,,,,,,,,,,,,,,,,,,,,,,,,,,,,,,,,,,,,,,,,,,,,,,,,,,,,,,,,,,,,,,,,,,,,,,,,,,,,,,,,,,,,,,,,,,,,,,,,,,,,,,,,S4,1,2019_Nov_19_1109,test_final,3.2.4,59.98320608
,,,,6,0,6,0,4,0,4,0,,,,,,,,,,,,,,,,,,,,,,,,,,,,,,,,,,,,,,,87.27361228,None,,,,,,,,,,,,,,,,,,,,,,,,,,,,,,,,,,,,,,,,,,,,,,,,,,,,,,,,,,,,,,,,,,,,,,,,,,,,,,,,,,,,,,,,,,,,,,,,,,,,,,,,,,,,,,,,,,,,,,,,,,,S4,1,2019_Nov_19_1109,test_final,3.2.4,59.98320608
,,,,7,0,7,0,0,0,0,0,,,,,,,,,,,,,,,,,,,,,,,,,,,,,,,,,,,,,,,92.86781808,None,qnhxl,"['q', 'n', 'h', 'x', 'l']","[1.4479019306600094, 1.7070629140362144, 2.252104769926518, 2.6467668572440743, 2.996070086490363, 3.780928722117096]",88.55606748,None,88.55606748,None,1,QNHXL,88.55606748,None,,,,,,,,,,,,,,,,,,,,,,,,,,,,,,,,,,,,,,,,,,,,,,,,,,,,,,,,,,,,,,,,,,,,,,,,,,,,,,,,,,,,,,,,,,,,,,,,,,,,,,,,,,,,,,,,S4,1,2019_Nov_19_1109,test_final,3.2.4,59.98320608
,,,,7,0,7,0,1,0,1,0,,,,,,,,,,,,,,,,,,,,,,,,,,,,,,,,,,,,,,,94.16610295,93.68288046,,,,,,,,,,,,,,,,,,,,,,,,,,,,,,,,,,,,,,,,,,,,,,,,,,,,,,,,,,,,,,,,,,,,,,,,,,,,,,,,,,,,,,,,,,,,,,,,,,,,,,,,,,,,,,,,,,,,,,,,,,,S4,1,2019_Nov_19_1109,test_final,3.2.4,59.98320608
,,,,7,0,7,0,2,0,2,0,,,,,,,,,,,,,,,,,,,,,,,,,,,,,,,,,,,,,,,95.4651805,94.98154051,,,,,,,,,,,,,,,,,,,,,,,,,,,,,,,,,,,,,,,,,,,,,,,,,,,,,,,,,,,,,,,,,,,,,,,,,,,,,,,,,,,,,,,,,,,,,,,,,,,,,,,,,,,,,,,,,,,,,,,,,,,S4,1,2019_Nov_19_1109,test_final,3.2.4,59.98320608
,,,,7,0,7,0,3,0,3,0,,,,,,,,,,,,,,,,,,,,,,,,,,,,,,,,,,,,,,,96.76334866,96.28005,,,,,,,,,,,,,,,,,,,,,,,,,,,,,,,,,,,,,,,,,,,,,,,,,,,,,,,,,,,,,,,,,,,,,,,,,,,,,,,,,,,,,,,,,,,,,,,,,,,,,,,,,,,,,,,,,,,,,,,,,,,S4,1,2019_Nov_19_1109,test_final,3.2.4,59.98320608
,,,,7,0,7,0,4,0,4,0,,,,,,,,,,,,,,,,,,,,,,,,,,,,,,,,,,,,,,,98.06142126,97.57867621,,,,,,,,,,,,,,,,,,,,,,,,,,,,,,,,,,,,,,,,,,,,,,,,,,,,,,,,,,,,,,,,,,,,,,,,,,,,,,,,,,,,,,,,,,,,,,,,,,,,,,,,,,,,,,,,,,,,,,,,,,,S4,1,2019_Nov_19_1109,test_final,3.2.4,59.98320608
,,,,8,0,8,0,0,0,0,0,,,,,,,,,,,,,,,,,,,,,,,,,,,,,,,,,,,,,,,108.9996322,None,szvxtz,"['s', 'z', 'v', 'x', 't', 'z']","[1.1739352736622095, 1.7290739580057561, 3.184581126552075, 3.5496868761256337, 3.9100093794986606, 4.281116666737944, 5.23039239179343, 5.648825433570892, 6.147504178341478, 8.856032567564398, 9.109555209055543]",99.34377667,None,99.34377667,None,0,SZVXT,99.34377667,None,,,,,,,,,,,,,,,,,,,,,,,,,,,,,,,,,,,,,,,,,,,,,,,,,,,,,,,,,,,,,,,,,,,,,,,,,,,,,,,,,,,,,,,,,,,,,,,,,,,,,,,,,,,,,,,,S4,1,2019_Nov_19_1109,test_final,3.2.4,59.98320608
,,,,8,0,8,0,1,0,1,0,,,,,,,,,,,,,,,,,,,,,,,,,,,,,,,,,,,,,,,110.2981809,None,,,,,,,,,,,,,,,,,,,,,,,,,,,,,,,,,,,,,,,,,,,,,,,,,,,,,,,,,,,,,,,,,,,,,,,,,,,,,,,,,,,,,,,,,,,,,,,,,,,,,,,,,,,,,,,,,,,,,,,,,,,S4,1,2019_Nov_19_1109,test_final,3.2.4,59.98320608
,,,,8,0,8,0,2,0,2,0,,,,,,,,,,,,,,,,,,,,,,,,,,,,,,,,,,,,,,,111.5967796,111.0980476,,,,,,,,,,,,,,,,,,,,,,,,,,,,,,,,,,,,,,,,,,,,,,,,,,,,,,,,,,,,,,,,,,,,,,,,,,,,,,,,,,,,,,,,,,,,,,,,,,,,,,,,,,,,,,,,,,,,,,,,,,,S4,1,2019_Nov_19_1109,test_final,3.2.4,59.98320608
,,,,8,0,8,0,3,0,3,0,,,,,,,,,,,,,,,,,,,,,,,,,,,,,,,,,,,,,,,112.8790274,112.39577,,,,,,,,,,,,,,,,,,,,,,,,,,,,,,,,,,,,,,,,,,,,,,,,,,,,,,,,,,,,,,,,,,,,,,,,,,,,,,,,,,,,,,,,,,,,,,,,,,,,,,,,,,,,,,,,,,,,,,,,,,,S4,1,2019_Nov_19_1109,test_final,3.2.4,59.98320608
,,,,8,0,8,0,4,0,4,0,,,,,,,,,,,,,,,,,,,,,,,,,,,,,,,,,,,,,,,114.1782287,113.6941839,,,,,,,,,,,,,,,,,,,,,,,,,,,,,,,,,,,,,,,,,,,,,,,,,,,,,,,,,,,,,,,,,,,,,,,,,,,,,,,,,,,,,,,,,,,,,,,,,,,,,,,,,,,,,,,,,,,,,,,,,,,S4,1,2019_Nov_19_1109,test_final,3.2.4,59.98320608
,,,,9,0,9,0,0,0,0,0,,,,,,,,,,,,,,,,,,,,,,,,,,,,,,,,,,,,,,,118.3728665,None,hrvlt,"['h', 'r', 'v', 'l', 't']","[1.247596563771367, 1.3785429168492556, 1.6312146941199899, 1.795914581976831, 1.9431465403176844, 2.354499389883131]",115.4755905,None,115.4755905,None,1,HRVLT,115.4755905,None,,,,,,,,,,,,,,,,,,,,,,,,,,,,,,,,,,,,,,,,,,,,,,,,,,,,,,,,,,,,,,,,,,,,,,,,,,,,,,,,,,,,,,,,,,,,,,,,,,,,,,,,,,,,,,,,S4,1,2019_Nov_19_1109,test_final,3.2.4,59.98320608
,,,,9,0,9,0,1,0,1,0,,,,,,,,,,,,,,,,,,,,,,,,,,,,,,,,,,,,,,,119.6709317,119.1714789,,,,,,,,,,,,,,,,,,,,,,,,,,,,,,,,,,,,,,,,,,,,,,,,,,,,,,,,,,,,,,,,,,,,,,,,,,,,,,,,,,,,,,,,,,,,,,,,,,,,,,,,,,,,,,,,,,,,,,,,,,,S4,1,2019_Nov_19_1109,test_final,3.2.4,59.98320608
,,,,9,0,9,0,2,0,2,0,,,,,,,,,,,,,,,,,,,,,,,,,,,,,,,,,,,,,,,120.9533608,120.4701168,,,,,,,,,,,,,,,,,,,,,,,,,,,,,,,,,,,,,,,,,,,,,,,,,,,,,,,,,,,,,,,,,,,,,,,,,,,,,,,,,,,,,,,,,,,,,,,,,,,,,,,,,,,,,,,,,,,,,,,,,,,S4,1,2019_Nov_19_1109,test_final,3.2.4,59.98320608
,,,,9,0,9,0,3,0,3,0,,,,,,,,,,,,,,,,,,,,,,,,,,,,,,,,,,,,,,,122.2518512,121.7689204,,,,,,,,,,,,,,,,,,,,,,,,,,,,,,,,,,,,,,,,,,,,,,,,,,,,,,,,,,,,,,,,,,,,,,,,,,,,,,,,,,,,,,,,,,,,,,,,,,,,,,,,,,,,,,,,,,,,,,,,,,,S4,1,2019_Nov_19_1109,test_final,3.2.4,59.98320608
,,,,9,0,9,0,4,0,4,0,,,,,,,,,,,,,,,,,,,,,,,,,,,,,,,,,,,,,,,123.5340924,123.0507966,,,,,,,,,,,,,,,,,,,,,,,,,,,,,,,,,,,,,,,,,,,,,,,,,,,,,,,,,,,,,,,,,,,,,,,,,,,,,,,,,,,,,,,,,,,,,,,,,,,,,,,,,,,,,,,,,,,,,,,,,,,S4,1,2019_Nov_19_1109,test_final,3.2.4,59.98320608
,,,,9,0,9,0,5,0,5,0,,,,,,,,,,,,,,,,,,,,,,,,,,,,,,,,,,,,,,,124.814476,124.3323424,,,,,,,,,,,,,,,,,,,,,,,,,,,,,,,,,,,,,,,,,,,,,,,,,,,,,,,,,,,,,,,,,,,,,,,,,,,,,,,,,,,,,,,,,,,,,,,,,,,,,,,,,,,,,,,,,,,,,,,,,,,S4,1,2019_Nov_19_1109,test_final,3.2.4,59.98320608
,,,,10,0,10,0,0,0,0,0,,,,,,,,,,,,,,,,,,,,,,,,,,,,,,,,,,,,,,,129.0110859,None,nhkslr,"['n', 'h', 'k', 's', 'l', 'r']","[1.1033346964977682, 1.368196435738355, 1.586877366527915, 1.7586443996988237, 1.8821082250215113, 2.041324569378048, 2.3919970095157623]",126.0971953,None,126.0971953,None,1,NHKSLR,126.0971953,None,,,,,,,,,,,,,,,,,,,,,,,,,,,,,,,,,,,,,,,,,,,,,,,,,,,,,,,,,,,,,,,,,,,,,,,,,,,,,,,,,,,,,,,,,,,,,,,,,,,,,,,,,,,,,,,,S4,1,2019_Nov_19_1109,test_final,3.2.4,59.98320608
,,,,10,0,10,0,1,0,1,0,,,,,,,,,,,,,,,,,,,,,,,,,,,,,,,,,,,,,,,130.3265774,129.8264738,,,,,,,,,,,,,,,,,,,,,,,,,,,,,,,,,,,,,,,,,,,,,,,,,,,,,,,,,,,,,,,,,,,,,,,,,,,,,,,,,,,,,,,,,,,,,,,,,,,,,,,,,,,,,,,,,,,,,,,,,,,S4,1,2019_Nov_19_1109,test_final,3.2.4,59.98320608
,,,,10,0,10,0,2,0,2,0,,,,,,,,,,,,,,,,,,,,,,,,,,,,,,,,,,,,,,,131.624795,None,,,,,,,,,,,,,,,,,,,,,,,,,,,,,,,,,,,,,,,,,,,,,,,,,,,,,,,,,,,,,,,,,,,,,,,,,,,,,,,,,,,,,,,,,,,,,,,,,,,,,,,,,,,,,,,,,,,,,,,,,,,S4,1,2019_Nov_19_1109,test_final,3.2.4,59.98320608
,,,,10,0,10,0,3,0,3,0,,,,,,,,,,,,,,,,,,,,,,,,,,,,,,,,,,,,,,,132.9235185,132.4236514,,,,,,,,,,,,,,,,,,,,,,,,,,,,,,,,,,,,,,,,,,,,,,,,,,,,,,,,,,,,,,,,,,,,,,,,,,,,,,,,,,,,,,,,,,,,,,,,,,,,,,,,,,,,,,,,,,,,,,,,,,,S4,1,2019_Nov_19_1109,test_final,3.2.4,59.98320608
,,,,10,0,10,0,4,0,4,0,,,,,,,,,,,,,,,,,,,,,,,,,,,,,,,,,,,,,,,134.2218873,133.7220756,,,,,,,,,,,,,,,,,,,,,,,,,,,,,,,,,,,,,,,,,,,,,,,,,,,,,,,,,,,,,,,,,,,,,,,,,,,,,,,,,,,,,,,,,,,,,,,,,,,,,,,,,,,,,,,,,,,,,,,,,,,S4,1,2019_Nov_19_1109,test_final,3.2.4,59.98320608
,,,,10,0,10,0,5,0,5,0,,,,,,,,,,,,,,,,,,,,,,,,,,,,,,,,,,,,,,,135.5205685,135.0217325,,,,,,,,,,,,,,,,,,,,,,,,,,,,,,,,,,,,,,,,,,,,,,,,,,,,,,,,,,,,,,,,,,,,,,,,,,,,,,,,,,,,,,,,,,,,,,,,,,,,,,,,,,,,,,,,,,,,,,,,,,,S4,1,2019_Nov_19_1109,test_final,3.2.4,59.98320608
,,,,11,0,11,0,0,0,0,0,,,,,,,,,,,,,,,,,,,,,,,,,,,,,,,,,,,,,,,140.0657415,None,jnlstx,"['j', 'n', 'l', 's', 't', 'x']","[1.4513240759260952, 1.6736732791177928, 1.7613126509822905, 1.9002136858180165, 2.116123049054295, 2.4069095253944397, 2.7103605857118964]",136.8191545,None,136.8191545,None,1,JNLSTX,136.8191545,None,,,,,,,,,,,,,,,,,,,,,,,,,,,,,,,,,,,,,,,,,,,,,,,,,,,,,,,,,,,,,,,,,,,,,,,,,,,,,,,,,,,,,,,,,,,,,,,,,,,,,,,,,,,,,,,,S4,1,2019_Nov_19_1109,test_final,3.2.4,59.98320608
,,,,11,0,11,0,1,0,1,0,,,,,,,,,,,,,,,,,,,,,,,,,,,,,,,,,,,,,,,141.3645673,None,,,,,,,,,,,,,,,,,,,,,,,,,,,,,,,,,,,,,,,,,,,,,,,,,,,,,,,,,,,,,,,,,,,,,,,,,,,,,,,,,,,,,,,,,,,,,,,,,,,,,,,,,,,,,,,,,,,,,,,,,,,S4,1,2019_Nov_19_1109,test_final,3.2.4,59.98320608
,,,,11,0,11,0,2,0,2,0,,,,,,,,,,,,,,,,,,,,,,,,,,,,,,,,,,,,,,,142.6628201,142.1623102,,,,,,,,,,,,,,,,,,,,,,,,,,,,,,,,,,,,,,,,,,,,,,,,,,,,,,,,,,,,,,,,,,,,,,,,,,,,,,,,,,,,,,,,,,,,,,,,,,,,,,,,,,,,,,,,,,,,,,,,,,,S4,1,2019_Nov_19_1109,test_final,3.2.4,59.98320608
,,,,11,0,11,0,3,0,3,0,,,,,,,,,,,,,,,,,,,,,,,,,,,,,,,,,,,,,,,143.9607784,143.4620475,,,,,,,,,,,,,,,,,,,,,,,,,,,,,,,,,,,,,,,,,,,,,,,,,,,,,,,,,,,,,,,,,,,,,,,,,,,,,,,,,,,,,,,,,,,,,,,,,,,,,,,,,,,,,,,,,,,,,,,,,,,S4,1,2019_Nov_19_1109,test_final,3.2.4,59.98320608
,,,,11,0,11,0,4,0,4,0,,,,,,,,,,,,,,,,,,,,,,,,,,,,,,,,,,,,,,,145.24302,144.7601173,,,,,,,,,,,,,,,,,,,,,,,,,,,,,,,,,,,,,,,,,,,,,,,,,,,,,,,,,,,,,,,,,,,,,,,,,,,,,,,,,,,,,,,,,,,,,,,,,,,,,,,,,,,,,,,,,,,,,,,,,,,S4,1,2019_Nov_19_1109,test_final,3.2.4,59.98320608
,,,,11,0,11,0,5,0,5,0,,,,,,,,,,,,,,,,,,,,,,,,,,,,,,,,,,,,,,,146.5423383,146.0582424,,,,,,,,,,,,,,,,,,,,,,,,,,,,,,,,,,,,,,,,,,,,,,,,,,,,,,,,,,,,,,,,,,,,,,,,,,,,,,,,,,,,,,,,,,,,,,,,,,,,,,,,,,,,,,,,,,,,,,,,,,,S4,1,2019_Nov_19_1109,test_final,3.2.4,59.98320608
,,,,11,0,11,0,6,0,6,0,,,,,,,,,,,,,,,,,,,,,,,,,,,,,,,,,,,,,,,147.8577015,147.3573908,,,,,,,,,,,,,,,,,,,,,,,,,,,,,,,,,,,,,,,,,,,,,,,,,,,,,,,,,,,,,,,,,,,,,,,,,,,,,,,,,,,,,,,,,,,,,,,,,,,,,,,,,,,,,,,,,,,,,,,,,,,S4,1,2019_Nov_19_1109,test_final,3.2.4,59.98320608
,,,,12,0,12,0,0,0,0,0,,,,,,,,,,,,,,,,,,,,,,,,,,,,,,,,,,,,,,,155.1158663,None,qrsvxkh,"['q', 'r', 's', 'v', 'x', 'k', 'h']","[1.7211326756514609, 1.9246986890211701, 2.2475207513198256, 3.4567988039925694, 3.85136427404359, 4.325516759883612, 4.629012249875814, 4.855578044429421, 5.054018068127334, 5.440653187222779]",149.1554906,None,149.1554906,None,1,QRSVXKH,149.1554906,None,,,,,,,,,,,,,,,,,,,,,,,,,,,,,,,,,,,,,,,,,,,,,,,,,,,,,,,,,,,,,,,,,,,,,,,,,,,,,,,,,,,,,,,,,,,,,,,,,,,,,,,,,,,,,,,,S4,1,2019_Nov_19_1109,test_final,3.2.4,59.98320608
,,,,12,0,12,0,1,0,1,0,,,,,,,,,,,,,,,,,,,,,,,,,,,,,,,,,,,,,,,156.4144234,155.9309129,,,,,,,,,,,,,,,,,,,,,,,,,,,,,,,,,,,,,,,,,,,,,,,,,,,,,,,,,,,,,,,,,,,,,,,,,,,,,,,,,,,,,,,,,,,,,,,,,,,,,,,,,,,,,,,,,,,,,,,,,,,S4,1,2019_Nov_19_1109,test_final,3.2.4,59.98320608
,,,,12,0,12,0,2,0,2,0,,,,,,,,,,,,,,,,,,,,,,,,,,,,,,,,,,,,,,,157.7127196,157.2129008,,,,,,,,,,,,,,,,,,,,,,,,,,,,,,,,,,,,,,,,,,,,,,,,,,,,,,,,,,,,,,,,,,,,,,,,,,,,,,,,,,,,,,,,,,,,,,,,,,,,,,,,,,,,,,,,,,,,,,,,,,,S4,1,2019_Nov_19_1109,test_final,3.2.4,59.98320608
,,,,12,0,12,0,3,0,3,0,,,,,,,,,,,,,,,,,,,,,,,,,,,,,,,,,,,,,,,159.0113962,158.5116466,,,,,,,,,,,,,,,,,,,,,,,,,,,,,,,,,,,,,,,,,,,,,,,,,,,,,,,,,,,,,,,,,,,,,,,,,,,,,,,,,,,,,,,,,,,,,,,,,,,,,,,,,,,,,,,,,,,,,,,,,,,S4,1,2019_Nov_19_1109,test_final,3.2.4,59.98320608
,,,,12,0,12,0,4,0,4,0,,,,,,,,,,,,,,,,,,,,,,,,,,,,,,,,,,,,,,,160.2934893,159.8099917,,,,,,,,,,,,,,,,,,,,,,,,,,,,,,,,,,,,,,,,,,,,,,,,,,,,,,,,,,,,,,,,,,,,,,,,,,,,,,,,,,,,,,,,,,,,,,,,,,,,,,,,,,,,,,,,,,,,,,,,,,,S4,1,2019_Nov_19_1109,test_final,3.2.4,59.98320608
,,,,12,0,12,0,5,0,5,0,,,,,,,,,,,,,,,,,,,,,,,,,,,,,,,,,,,,,,,161.6085291,161.1087562,,,,,,,,,,,,,,,,,,,,,,,,,,,,,,,,,,,,,,,,,,,,,,,,,,,,,,,,,,,,,,,,,,,,,,,,,,,,,,,,,,,,,,,,,,,,,,,,,,,,,,,,,,,,,,,,,,,,,,,,,,,S4,1,2019_Nov_19_1109,test_final,3.2.4,59.98320608
,,,,12,0,12,0,6,0,6,0,,,,,,,,,,,,,,,,,,,,,,,,,,,,,,,,,,,,,,,162.8901412,162.4069924,,,,,,,,,,,,,,,,,,,,,,,,,,,,,,,,,,,,,,,,,,,,,,,,,,,,,,,,,,,,,,,,,,,,,,,,,,,,,,,,,,,,,,,,,,,,,,,,,,,,,,,,,,,,,,,,,,,,,,,,,,,S4,1,2019_Nov_19_1109,test_final,3.2.4,59.98320608
,,,,13,0,13,0,0,0,0,0,,,,,,,,,,,,,,,,,,,,,,,,,,,,,,,,,,,,,,,174.3780521,None,nhlhxqr,"['n', 'h', 'l', 'h', 'x', 'q', 'r']","[1.0107657425105572, 1.2365494333207607, 1.3784149172715843, 3.883362835738808, 5.577445573639125, 5.987416165415198, 8.32856865786016, 8.512152936775237, 8.636467626318336, 8.858465976081789, 9.063828219193965, 9.668945393990725]",164.1891884,None,164.1891884,None,0,NKLHSRQ,164.1891884,None,,,,,,,,,,,,,,,,,,,,,,,,,,,,,,,,,,,,,,,,,,,,,,,,,,,,,,,,,,,,,,,,,,,,,,,,,,,,,,,,,,,,,,,,,,,,,,,,,,,,,,,,,,,,,,,,S4,1,2019_Nov_19_1109,test_final,3.2.4,59.98320608
,,,,13,0,13,0,1,0,1,0,,,,,,,,,,,,,,,,,,,,,,,,,,,,,,,,,,,,,,,175.6935023,175.1931786,,,,,,,,,,,,,,,,,,,,,,,,,,,,,,,,,,,,,,,,,,,,,,,,,,,,,,,,,,,,,,,,,,,,,,,,,,,,,,,,,,,,,,,,,,,,,,,,,,,,,,,,,,,,,,,,,,,,,,,,,,,S4,1,2019_Nov_19_1109,test_final,3.2.4,59.98320608
,,,,13,0,13,0,2,0,2,0,,,,,,,,,,,,,,,,,,,,,,,,,,,,,,,,,,,,,,,176.9917706,None,,,,,,,,,,,,,,,,,,,,,,,,,,,,,,,,,,,,,,,,,,,,,,,,,,,,,,,,,,,,,,,,,,,,,,,,,,,,,,,,,,,,,,,,,,,,,,,,,,,,,,,,,,,,,,,,,,,,,,,,,,,S4,1,2019_Nov_19_1109,test_final,3.2.4,59.98320608
,,,,13,0,13,0,3,0,3,0,,,,,,,,,,,,,,,,,,,,,,,,,,,,,,,,,,,,,,,178.2899113,None,,,,,,,,,,,,,,,,,,,,,,,,,,,,,,,,,,,,,,,,,,,,,,,,,,,,,,,,,,,,,,,,,,,,,,,,,,,,,,,,,,,,,,,,,,,,,,,,,,,,,,,,,,,,,,,,,,,,,,,,,,,S4,1,2019_Nov_19_1109,test_final,3.2.4,59.98320608
,,,,13,0,13,0,4,0,4,0,,,,,,,,,,,,,,,,,,,,,,,,,,,,,,,,,,,,,,,179.5724426,179.0889137,,,,,,,,,,,,,,,,,,,,,,,,,,,,,,,,,,,,,,,,,,,,,,,,,,,,,,,,,,,,,,,,,,,,,,,,,,,,,,,,,,,,,,,,,,,,,,,,,,,,,,,,,,,,,,,,,,,,,,,,,,,S4,1,2019_Nov_19_1109,test_final,3.2.4,59.98320608
,,,,13,0,13,0,5,0,5,0,,,,,,,,,,,,,,,,,,,,,,,,,,,,,,,,,,,,,,,180.8874691,180.3875755,,,,,,,,,,,,,,,,,,,,,,,,,,,,,,,,,,,,,,,,,,,,,,,,,,,,,,,,,,,,,,,,,,,,,,,,,,,,,,,,,,,,,,,,,,,,,,,,,,,,,,,,,,,,,,,,,,,,,,,,,,,S4,1,2019_Nov_19_1109,test_final,3.2.4,59.98320608
,,,,13,0,13,0,6,0,6,0,,,,,,,,,,,,,,,,,,,,,,,,,,,,,,,,,,,,,,,182.1694535,181.6859468,,,,,,,,,,,,,,,,,,,,,,,,,,,,,,,,,,,,,,,,,,,,,,,,,,,,,,,,,,,,,,,,,,,,,,,,,,,,,,,,,,,,,,,,,,,,,,,,,,,,,,,,,,,,,,,,,,,,,,,,,,,S4,1,2019_Nov_19_1109,test_final,3.2.4,59.98320608
,,,,14,0,14,0,0,0,0,0,,,,,,,,,,,,,,,,,,,,,,,,,,,,,,,,,,,,,,,191.6421835,None,ljtrkxz,"['l', 'j', 't', 'r', 'k', 'x', 'z']","[2.696182570885867, 3.1643553813919425, 3.421063915360719, 3.7481293682940304, 4.064581761136651, 4.648501731455326, 5.020464114379138, 7.669205977581441]",183.4516347,None,183.4516347,None,1,LJTRKXZ,183.4516347,None,,,,,,,,,,,,,,,,,,,,,,,,,,,,,,,,,,,,,,,,,,,,,,,,,,,,,,,,,,,,,,,,,,,,,,,,,,,,,,,,,,,,,,,,,,,,,,,,,,,,,,,,,,,,,,,,S4,1,2019_Nov_19_1109,test_final,3.2.4,59.98320608
,,,,14,0,14,0,1,0,1,0,,,,,,,,,,,,,,,,,,,,,,,,,,,,,,,,,,,,,,,192.957138,192.4574723,,,,,,,,,,,,,,,,,,,,,,,,,,,,,,,,,,,,,,,,,,,,,,,,,,,,,,,,,,,,,,,,,,,,,,,,,,,,,,,,,,,,,,,,,,,,,,,,,,,,,,,,,,,,,,,,,,,,,,,,,,,S4,1,2019_Nov_19_1109,test_final,3.2.4,59.98320608
,,,,14,0,14,0,2,0,2,0,,,,,,,,,,,,,,,,,,,,,,,,,,,,,,,,,,,,,,,194.238919,193.755985,,,,,,,,,,,,,,,,,,,,,,,,,,,,,,,,,,,,,,,,,,,,,,,,,,,,,,,,,,,,,,,,,,,,,,,,,,,,,,,,,,,,,,,,,,,,,,,,,,,,,,,,,,,,,,,,,,,,,,,,,,,S4,1,2019_Nov_19_1109,test_final,3.2.4,59.98320608
,,,,14,0,14,0,3,0,3,0,,,,,,,,,,,,,,,,,,,,,,,,,,,,,,,,,,,,,,,195.521906,195.037962,,,,,,,,,,,,,,,,,,,,,,,,,,,,,,,,,,,,,,,,,,,,,,,,,,,,,,,,,,,,,,,,,,,,,,,,,,,,,,,,,,,,,,,,,,,,,,,,,,,,,,,,,,,,,,,,,,,,,,,,,,,S4,1,2019_Nov_19_1109,test_final,3.2.4,59.98320608
,,,,14,0,14,0,4,0,4,0,,,,,,,,,,,,,,,,,,,,,,,,,,,,,,,,,,,,,,,196.8197487,196.3367726,,,,,,,,,,,,,,,,,,,,,,,,,,,,,,,,,,,,,,,,,,,,,,,,,,,,,,,,,,,,,,,,,,,,,,,,,,,,,,,,,,,,,,,,,,,,,,,,,,,,,,,,,,,,,,,,,,,,,,,,,,,S4,1,2019_Nov_19_1109,test_final,3.2.4,59.98320608
,,,,14,0,14,0,5,0,5,0,,,,,,,,,,,,,,,,,,,,,,,,,,,,,,,,,,,,,,,198.1024838,197.6184969,,,,,,,,,,,,,,,,,,,,,,,,,,,,,,,,,,,,,,,,,,,,,,,,,,,,,,,,,,,,,,,,,,,,,,,,,,,,,,,,,,,,,,,,,,,,,,,,,,,,,,,,,,,,,,,,,,,,,,,,,,,S4,1,2019_Nov_19_1109,test_final,3.2.4,59.98320608
,,,,14,0,14,0,6,0,6,0,,,,,,,,,,,,,,,,,,,,,,,,,,,,,,,,,,,,,,,199.4170427,198.9171827,,,,,,,,,,,,,,,,,,,,,,,,,,,,,,,,,,,,,,,,,,,,,,,,,,,,,,,,,,,,,,,,,,,,,,,,,,,,,,,,,,,,,,,,,,,,,,,,,,,,,,,,,,,,,,,,,,,,,,,,,,,S4,1,2019_Nov_19_1109,test_final,3.2.4,59.98320608
,,,,14,0,14,0,7,0,7,0,,,,,,,,,,,,,,,,,,,,,,,,,,,,,,,,,,,,,,,200.715489,200.2157341,,,,,,,,,,,,,,,,,,,,,,,,,,,,,,,,,,,,,,,,,,,,,,,,,,,,,,,,,,,,,,,,,,,,,,,,,,,,,,,,,,,,,,,,,,,,,,,,,,,,,,,,,,,,,,,,,,,,,,,,,,,S4,1,2019_Nov_19_1109,test_final,3.2.4,59.98320608
,,,,15,0,15,0,0,0,0,0,,,,,,,,,,,,,,,,,,,,,,,,,,,,,,,,,,,,,,,211.3875854,None,lrkvxsnt,"['l', 'r', 'k', 'v', 'x', 's', 'n', 't']","[0.6012662467546761, 0.9062406118027866, 1.5681195654906332, 1.7719295895658433, 2.0392074584960938, 2.4780009449459612, 2.5937354103662074, 2.8395717116072774, 3.1036545201204717, 3.399639625567943, 8.858683187980205]",201.9973067,None,201.9973067,None,0,LRZVXSNT,201.9973067,None,,,,,,,,,,,,,,,,,,,,,,,,,,,,,,,,,,,,,,,,,,,,,,,,,,,,,,,,,,,,,,,,,,,,,,,,,,,,,,,,,,,,,,,,,,,,,,,,,,,,,,,,,,,,,,,,S4,1,2019_Nov_19_1109,test_final,3.2.4,59.98320608
,,,,15,0,15,0,1,0,1,0,,,,,,,,,,,,,,,,,,,,,,,,,,,,,,,,,,,,,,,212.702237,212.2024669,,,,,,,,,,,,,,,,,,,,,,,,,,,,,,,,,,,,,,,,,,,,,,,,,,,,,,,,,,,,,,,,,,,,,,,,,,,,,,,,,,,,,,,,,,,,,,,,,,,,,,,,,,,,,,,,,,,,,,,,,,,S4,1,2019_Nov_19_1109,test_final,3.2.4,59.98320608
,,,,15,0,15,0,2,0,2,0,,,,,,,,,,,,,,,,,,,,,,,,,,,,,,,,,,,,,,,214.0008346,213.5009584,,,,,,,,,,,,,,,,,,,,,,,,,,,,,,,,,,,,,,,,,,,,,,,,,,,,,,,,,,,,,,,,,,,,,,,,,,,,,,,,,,,,,,,,,,,,,,,,,,,,,,,,,,,,,,,,,,,,,,,,,,,S4,1,2019_Nov_19_1109,test_final,3.2.4,59.98320608
,,,,15,0,15,0,3,0,3,0,,,,,,,,,,,,,,,,,,,,,,,,,,,,,,,,,,,,,,,215.2993314,214.7999044,,,,,,,,,,,,,,,,,,,,,,,,,,,,,,,,,,,,,,,,,,,,,,,,,,,,,,,,,,,,,,,,,,,,,,,,,,,,,,,,,,,,,,,,,,,,,,,,,,,,,,,,,,,,,,,,,,,,,,,,,,,S4,1,2019_Nov_19_1109,test_final,3.2.4,59.98320608
,,,,15,0,15,0,4,0,4,0,,,,,,,,,,,,,,,,,,,,,,,,,,,,,,,,,,,,,,,216.5985864,216.0984601,,,,,,,,,,,,,,,,,,,,,,,,,,,,,,,,,,,,,,,,,,,,,,,,,,,,,,,,,,,,,,,,,,,,,,,,,,,,,,,,,,,,,,,,,,,,,,,,,,,,,,,,,,,,,,,,,,,,,,,,,,,S4,1,2019_Nov_19_1109,test_final,3.2.4,59.98320608
,,,,15,0,15,0,5,0,5,0,,,,,,,,,,,,,,,,,,,,,,,,,,,,,,,,,,,,,,,217.8966568,None,,,,,,,,,,,,,,,,,,,,,,,,,,,,,,,,,,,,,,,,,,,,,,,,,,,,,,,,,,,,,,,,,,,,,,,,,,,,,,,,,,,,,,,,,,,,,,,,,,,,,,,,,,,,,,,,,,,,,,,,,,,S4,1,2019_Nov_19_1109,test_final,3.2.4,59.98320608
,,,,15,0,15,0,6,0,6,0,,,,,,,,,,,,,,,,,,,,,,,,,,,,,,,,,,,,,,,219.1948426,None,,,,,,,,,,,,,,,,,,,,,,,,,,,,,,,,,,,,,,,,,,,,,,,,,,,,,,,,,,,,,,,,,,,,,,,,,,,,,,,,,,,,,,,,,,,,,,,,,,,,,,,,,,,,,,,,,,,,,,,,,,,S4,1,2019_Nov_19_1109,test_final,3.2.4,59.98320608
,,,,15,0,15,0,7,0,7,0,,,,,,,,,,,,,,,,,,,,,,,,,,,,,,,,,,,,,,,220.4938437,219.9953613,,,,,,,,,,,,,,,,,,,,,,,,,,,,,,,,,,,,,,,,,,,,,,,,,,,,,,,,,,,,,,,,,,,,,,,,,,,,,,,,,,,,,,,,,,,,,,,,,,,,,,,,,,,,,,,,,,,,,,,,,,,S4,1,2019_Nov_19_1109,test_final,3.2.4,59.98320608
,,,,16,0,16,0,0,0,0,0,,,,,,,,,,,,,,,,,,,,,,,,,,,,,,,,,,,,,,,234.4285591,None,zxhjknrs,"['z', 'x', 'h', 'j', 'k', 'n', 'r', 's']","[0.9365374441258609, 1.3187324129976332, 1.718734881374985, 2.2392896180972457, 2.5914659686386585, 5.660199440084398, 6.331914991140366, 6.777944173663855, 12.131115961354226]",221.7757111,None,221.7757111,None,0,ZXHSKJNR,221.7757111,None,,,,,,,,,,,,,,,,,,,,,,,,,,,,,,,,,,,,,,,,,,,,,,,,,,,,,,,,,,,,,,,,,,,,,,,,,,,,,,,,,,,,,,,,,,,,,,,,,,,,,,,,,,,,,,,,S4,1,2019_Nov_19_1109,test_final,3.2.4,59.98320608
,,,,16,0,16,0,1,0,1,0,,,,,,,,,,,,,,,,,,,,,,,,,,,,,,,,,,,,,,,235.7101254,235.2271994,,,,,,,,,,,,,,,,,,,,,,,,,,,,,,,,,,,,,,,,,,,,,,,,,,,,,,,,,,,,,,,,,,,,,,,,,,,,,,,,,,,,,,,,,,,,,,,,,,,,,,,,,,,,,,,,,,,,,,,,,,,S4,1,2019_Nov_19_1109,test_final,3.2.4,59.98320608
,,,,16,0,16,0,2,0,2,0,,,,,,,,,,,,,,,,,,,,,,,,,,,,,,,,,,,,,,,236.9923253,236.5092809,,,,,,,,,,,,,,,,,,,,,,,,,,,,,,,,,,,,,,,,,,,,,,,,,,,,,,,,,,,,,,,,,,,,,,,,,,,,,,,,,,,,,,,,,,,,,,,,,,,,,,,,,,,,,,,,,,,,,,,,,,,S4,1,2019_Nov_19_1109,test_final,3.2.4,59.98320608
,,,,16,0,16,0,3,0,3,0,,,,,,,,,,,,,,,,,,,,,,,,,,,,,,,,,,,,,,,238.3061912,237.8074621,,,,,,,,,,,,,,,,,,,,,,,,,,,,,,,,,,,,,,,,,,,,,,,,,,,,,,,,,,,,,,,,,,,,,,,,,,,,,,,,,,,,,,,,,,,,,,,,,,,,,,,,,,,,,,,,,,,,,,,,,,,S4,1,2019_Nov_19_1109,test_final,3.2.4,59.98320608
,,,,16,0,16,0,4,0,4,0,,,,,,,,,,,,,,,,,,,,,,,,,,,,,,,,,,,,,,,239.5893598,239.1064353,,,,,,,,,,,,,,,,,,,,,,,,,,,,,,,,,,,,,,,,,,,,,,,,,,,,,,,,,,,,,,,,,,,,,,,,,,,,,,,,,,,,,,,,,,,,,,,,,,,,,,,,,,,,,,,,,,,,,,,,,,,S4,1,2019_Nov_19_1109,test_final,3.2.4,59.98320608
,,,,16,0,16,0,5,0,5,0,,,,,,,,,,,,,,,,,,,,,,,,,,,,,,,,,,,,,,,240.8719102,240.3883404,,,,,,,,,,,,,,,,,,,,,,,,,,,,,,,,,,,,,,,,,,,,,,,,,,,,,,,,,,,,,,,,,,,,,,,,,,,,,,,,,,,,,,,,,,,,,,,,,,,,,,,,,,,,,,,,,,,,,,,,,,,S4,1,2019_Nov_19_1109,test_final,3.2.4,59.98320608
,,,,16,0,16,0,6,0,6,0,,,,,,,,,,,,,,,,,,,,,,,,,,,,,,,,,,,,,,,242.1710089,241.6869165,,,,,,,,,,,,,,,,,,,,,,,,,,,,,,,,,,,,,,,,,,,,,,,,,,,,,,,,,,,,,,,,,,,,,,,,,,,,,,,,,,,,,,,,,,,,,,,,,,,,,,,,,,,,,,,,,,,,,,,,,,,S4,1,2019_Nov_19_1109,test_final,3.2.4,59.98320608
,,,,16,0,16,0,7,0,7,0,,,,,,,,,,,,,,,,,,,,,,,,,,,,,,,,,,,,,,,243.4692539,242.9856506,,,,,,,,,,,,,,,,,,,,,,,,,,,,,,,,,,,,,,,,,,,,,,,,,,,,,,,,,,,,,,,,,,,,,,,,,,,,,,,,,,,,,,,,,,,,,,,,,,,,,,,,,,,,,,,,,,,,,,,,,,,S4,1,2019_Nov_19_1109,test_final,3.2.4,59.98320608
,,,,17,0,17,0,0,0,0,0,,,,,,,,,,,,,,,,,,,,,,,,,,,,,,,,,,,,,,,252.1425792,None,zqvrlskn,"['z', 'q', 'v', 'r', 'l', 's', 'k', 'n']","[0.6770086814649403, 1.3057621102780104, 1.7587515953928232, 2.0721704266034067, 2.3199799712747335, 2.738247988279909, 3.244563707150519, 3.6014778167009354, 6.841667665634304]",244.7682098,None,244.7682098,None,1,ZQVRLSKN,244.7682098,None,,,,,,,,,,,,,,,,,,,,,,,,,,,,,,,,,,,,,,,,,,,,,,,,,,,,,,,,,,,,,,,,,,,,,,,,,,,,,,,,,,,,,,,,,,,,,,,,,,,,,,,,,,,,,,,,S4,1,2019_Nov_19_1109,test_final,3.2.4,59.98320608
,,,,17,0,17,0,1,0,1,0,,,,,,,,,,,,,,,,,,,,,,,,,,,,,,,,,,,,,,,253.4409441,None,,,,,,,,,,,,,,,,,,,,,,,,,,,,,,,,,,,,,,,,,,,,,,,,,,,,,,,,,,,,,,,,,,,,,,,,,,,,,,,,,,,,,,,,,,,,,,,,,,,,,,,,,,,,,,,,,,,,,,,,,,,S4,1,2019_Nov_19_1109,test_final,3.2.4,59.98320608
,,,,17,0,17,0,2,0,2,0,,,,,,,,,,,,,,,,,,,,,,,,,,,,,,,,,,,,,,,254.739223,254.2399882,,,,,,,,,,,,,,,,,,,,,,,,,,,,,,,,,,,,,,,,,,,,,,,,,,,,,,,,,,,,,,,,,,,,,,,,,,,,,,,,,,,,,,,,,,,,,,,,,,,,,,,,,,,,,,,,,,,,,,,,,,,S4,1,2019_Nov_19_1109,test_final,3.2.4,59.98320608
,,,,17,0,17,0,3,0,3,0,,,,,,,,,,,,,,,,,,,,,,,,,,,,,,,,,,,,,,,256.0381768,255.5390541,,,,,,,,,,,,,,,,,,,,,,,,,,,,,,,,,,,,,,,,,,,,,,,,,,,,,,,,,,,,,,,,,,,,,,,,,,,,,,,,,,,,,,,,,,,,,,,,,,,,,,,,,,,,,,,,,,,,,,,,,,,S4,1,2019_Nov_19_1109,test_final,3.2.4,59.98320608
,,,,17,0,17,0,4,0,4,0,,,,,,,,,,,,,,,,,,,,,,,,,,,,,,,,,,,,,,,257.3368435,256.8370209,,,,,,,,,,,,,,,,,,,,,,,,,,,,,,,,,,,,,,,,,,,,,,,,,,,,,,,,,,,,,,,,,,,,,,,,,,,,,,,,,,,,,,,,,,,,,,,,,,,,,,,,,,,,,,,,,,,,,,,,,,,S4,1,2019_Nov_19_1109,test_final,3.2.4,59.98320608
,,,,17,0,17,0,5,0,5,0,,,,,,,,,,,,,,,,,,,,,,,,,,,,,,,,,,,,,,,258.6356492,258.135207,,,,,,,,,,,,,,,,,,,,,,,,,,,,,,,,,,,,,,,,,,,,,,,,,,,,,,,,,,,,,,,,,,,,,,,,,,,,,,,,,,,,,,,,,,,,,,,,,,,,,,,,,,,,,,,,,,,,,,,,,,,S4,1,2019_Nov_19_1109,test_final,3.2.4,59.98320608
,,,,17,0,17,0,6,0,6,0,,,,,,,,,,,,,,,,,,,,,,,,,,,,,,,,,,,,,,,259.9334143,None,,,,,,,,,,,,,,,,,,,,,,,,,,,,,,,,,,,,,,,,,,,,,,,,,,,,,,,,,,,,,,,,,,,,,,,,,,,,,,,,,,,,,,,,,,,,,,,,,,,,,,,,,,,,,,,,,,,,,,,,,,,S4,1,2019_Nov_19_1109,test_final,3.2.4,59.98320608
,,,,17,0,17,0,7,0,7,0,,,,,,,,,,,,,,,,,,,,,,,,,,,,,,,,,,,,,,,261.2326361,260.7327528,,,,,,,,,,,,,,,,,,,,,,,,,,,,,,,,,,,,,,,,,,,,,,,,,,,,,,,,,,,,,,,,,,,,,,,,,,,,,,,,,,,,,,,,,,,,,,,,,,,,,,,,,,,,,,,,,,,,,,,,,,,S4,1,2019_Nov_19_1109,test_final,3.2.4,59.98320608
,,,,,,,,,,,,,,,,,,,,,,,,,,,,,,,,,,,,,,,,,,,,,,,,,,,,xsvzhjkln,"['x', 's', 'v', 'z', 'h', 'j', 'k', 'l', 'n']","[6.378091567661613, 6.5838039591908455, 6.79215709771961, 7.941651445347816, 8.30149544775486, 8.63220801576972, 8.828941374085844, 9.008521689567715, 9.19478303520009, 10.668223234824836, 10.843143719714135, 11.01652397448197, 11.150393872987479, 11.289097089786083, 11.428967115003616, 11.596122978720814, 11.860665246844292, 12.240312559530139, 12.604708491824567, 12.870988808106631, 13.02179489005357, 13.165327898226678, 13.353653815109283, 13.697414613794535]",262.5145204,None,262.5145204,None,0,XSZJVHLN,262.5145204,None,276.7315712,None,space,3.347378999,276.7315712,None,,,,,,,,,,,,,,,,,,,,,,,,,,,,,,,,,,,,,,,,,,,,,,,,,,,,,,,,,,,,,,,,,,,,,,,,,,,,,,,,,,,,,,,,,,,,,,,,,,,,,,,,,,S4,1,2019_Nov_19_1109,test_final,3.2.4,59.98320608
Practice,2,(1/1) - 1,0,,,,,,,,,0,0,0,0,0,0,0,1,,,,,,,,,,,,,,,,,,,,,,,,,,,,,,,,,,,,,,,,,,,,,,,,,,0,280.6772414,None,['0'],0,[2.5254938397556543],280.6772414,None,280.6772414,None,[2.5254938397556543],280.6772414,None,283.7403757,None,,,,,,,,,,,,,,,,,,,,,,,,,,,,,,,,,,,,,,,,,,,,,,,,,,,,,,,,,,,,,,,,,,,,,,,,,,,,,,,,,,,,,,,,,,,S4,1,2019_Nov_19_1109,test_final,3.2.4,59.98320608
Practice,8,(3/3) + 5,6,,,,,,,,,0,0,0,0,0,1,1,7,,,,,,,,,,,,,,,,,,,,,,,,,,,,,,,,,,,,,,,,,,,,,,,,,,6,285.2389144,None,['6'],0,[2.8553301552310586],285.2389144,None,285.2389144,None,"[2.5254938397556543, 2.8553301552310586]",285.2389144,None,288.6189923,None,,,,,,,,,,,,,,,,,,,,,,,,,,,,,,,,,,,,,,,,,,,,,,,,,,,,,,,,,,,,,,,,,,,,,,,,,,,,,,,,,,,,,,,,,,,S4,1,2019_Nov_19_1109,test_final,3.2.4,59.98320608
Practice,10,(8/4) + 3,5,,,,,,,,,0,0,0,0,0,2,2,9,,,,,,,,,,,,,,,,,,,,,,,,,,,,,,,,,,,,,,,,,,,,,,,,,,5,290.1176753,None,['5'],0,[2.0439505064859986],290.1176753,None,290.1176753,None,"[2.5254938397556543, 2.8553301552310586, 2.0439505064859986]",290.1176753,None,292.6981784,None,,,,,,,,,,,,,,,,,,,,,,,,,,,,,,,,,,,,,,,,,,,,,,,,,,,,,,,,,,,,,,,,,,,,,,,,,,,,,,,,,,,,,,,,,,,S4,1,2019_Nov_19_1109,test_final,3.2.4,59.98320608
Practice,13,(3x8) - 19 ,5,,,,,,,,,0,0,0,0,0,3,3,12,,,,,,,,,,,,,,,,,,,,,,,,,,,,,,,,,,,,,,,,,,,,,,,,,,5,294.196391,None,['5'],0,[2.2903848458081484],294.196391,None,294.196391,None,"[2.5254938397556543, 2.8553301552310586, 2.0439505064859986, 2.2903848458081484]",294.196391,None,297.0264611,None,,,,,,,,,,,,,,,,,,,,,,,,,,,,,,,,,,,,,,,,,,,,,,,,,,,,,,,,,,,,,,,,,,,,,,,,,,,,,,,,,,,,,,,,,,,S4,1,2019_Nov_19_1109,test_final,3.2.4,59.98320608
Practice,4,(4x4) - 14,2,,,,,,,,,0,0,0,0,0,4,4,3,,,,,,,,,,,,,,,,,,,,,,,,,,,,,,,,,,,,,,,,,,,,,,,,,,2,298.5246768,None,['2'],0,[1.5810680058784783],298.5246768,None,298.5246768,None,"[2.5254938397556543, 2.8553301552310586, 2.0439505064859986, 2.2903848458081484, 1.5810680058784783]",298.5246768,None,300.6228323,None,,,,,,,,,,,,,,,,,,,,,,,,,,,,,,,,,,,,,,,,,,,,,,,,,,,,,,,,,,,,,,,,,,,,,,,,,,,,,,,,,,,,,,,,,,,S4,1,2019_Nov_19_1109,test_final,3.2.4,59.98320608
Practice,6,(2x6) - 8,4,,,,,,,,,0,0,0,0,0,5,5,5,,,,,,,,,,,,,,,,,,,,,,,,,,,,,,,,,,,,,,,,,,,,,,,,,,4,302.1211785,None,['4'],0,[2.200144572649151],302.1211785,None,302.1211785,None,"[2.5254938397556543, 2.8553301552310586, 2.0439505064859986, 2.2903848458081484, 1.5810680058784783, 2.200144572649151]",302.1211785,None,304.8508593,None,,,,,,,,,,,,,,,,,,,,,,,,,,,,,,,,,,,,,,,,,,,,,,,,,,,,,,,,,,,,,,,,,,,,,,,,,,,,,,,,,,,,,,,,,,,S4,1,2019_Nov_19_1109,test_final,3.2.4,59.98320608
Practice,11,(5x3) - 7,8,,,,,,,,,0,0,0,0,0,6,6,10,,,,,,,,,,,,,,,,,,,,,,,,,,,,,,,,,,,,,,,,,,,,,,,,,,8,306.3657412,None,['8'],0,[2.1148458709940314],306.3657412,None,306.3657412,None,"[2.5254938397556543, 2.8553301552310586, 2.0439505064859986, 2.2903848458081484, 1.5810680058784783, 2.200144572649151, 2.1148458709940314]",306.3657412,None,309.0133966,None,,,,,,,,,,,,,,,,,,,,,,,,,,,,,,,,,,,,,,,,,,,,,,,,,,,,,,,,,,,,,,,,,,,,,,,,,,,,,,,,,,,,,,,,,,,S4,1,2019_Nov_19_1109,test_final,3.2.4,59.98320608
Practice,1,(1x2) + 1,3,,,,,,,,,0,0,0,0,0,7,7,0,,,,,,,,,,,,,,,,,,,,,,,,,,,,,,,,,,,,,,,,,,,,,,,,,,3,310.5117485,None,['3'],0,[1.4854753627441823],310.5117485,None,310.5117485,None,"[2.5254938397556543, 2.8553301552310586, 2.0439505064859986, 2.2903848458081484, 1.5810680058784783, 2.200144572649151, 2.1148458709940314, 1.4854753627441823]",310.5117485,None,312.5255619,None,,,,,,,,,,,,,,,,,,,,,,,,,,,,,,,,,,,,,,,,,,,,,,,,,,,,,,,,,,,,,,,,,,,,,,,,,,,,,,,,,,,,,,,,,,,S4,1,2019_Nov_19_1109,test_final,3.2.4,59.98320608
Practice,5,(3/3) + 2,3,,,,,,,,,0,0,0,0,0,8,8,4,,,,,,,,,,,,,,,,,,,,,,,,,,,,,,,,,,,,,,,,,,,,,,,,,,3,314.0241987,None,['3'],0,[2.317464050836861],314.0241987,None,314.0241987,None,"[2.5254938397556543, 2.8553301552310586, 2.0439505064859986, 2.2903848458081484, 1.5810680058784783, 2.200144572649151, 2.1148458709940314, 1.4854753627441823, 2.317464050836861]",314.0241987,None,316.8715093,None,,,,,,,,,,,,,,,,,,,,,,,,,,,,,,,,,,,,,,,,,,,,,,,,,,,,,,,,,,,,,,,,,,,,,,,,,,,,,,,,,,,,,,,,,,,S4,1,2019_Nov_19_1109,test_final,3.2.4,59.98320608
Practice,15,(9/3) - 2,1,,,,,,,,,0,0,0,0,0,9,9,14,,,,,,,,,,,,,,,,,,,,,,,,,,,,,,,,,,,,,,,,,,,,,,,,,,1,318.3690646,None,['1'],0,[2.1194348260760307],318.3690646,None,318.3690646,None,"[2.5254938397556543, 2.8553301552310586, 2.0439505064859986, 2.2903848458081484, 1.5810680058784783, 2.200144572649151, 2.1148458709940314, 1.4854753627441823, 2.317464050836861, 2.1194348260760307]",318.3690646,None,321.0171703,None,,,,,,,,,,,,,,,,,,,,,,,,,,,,,,,,,,,,,,,,,,,,,,,,,,,,,,,,,,,,,,,,,,,,,,,,,,,,,,,,,,,,,,,,,,,S4,1,2019_Nov_19_1109,test_final,3.2.4,59.98320608
Practice,7,(4x6) - 17,7,,,,,,,,,0,0,0,0,0,10,10,6,,,,,,,,,,,,,,,,,,,,,,,,,,,,,,,,,,,,,,,,,,,,,,,,,,7,322.5310652,None,['7'],0,[4.279284822288901],322.5310652,None,322.5310652,None,"[2.5254938397556543, 2.8553301552310586, 2.0439505064859986, 2.2903848458081484, 1.5810680058784783, 2.200144572649151, 2.1148458709940314, 1.4854753627441823, 2.317464050836861, 2.1194348260760307, 4.279284822288901]",322.5310652,None,327.32657,None,,,,,,,,,,,,,,,,,,,,,,,,,,,,,,,,,,,,,,,,,,,,,,,,,,,,,,,,,,,,,,,,,,,,,,,,,,,,,,,,,,,,,,,,,,,S4,1,2019_Nov_19_1109,test_final,3.2.4,59.98320608
Practice,9,(4/2) + 5,7,,,,,,,,,0,0,0,0,0,11,11,8,,,,,,,,,,,,,,,,,,,,,,,,,,,,,,,,,,,,,,,,,,,,,,,,,,7,328.8417636,None,['7'],0,[2.4769850559532642],328.8417636,None,328.8417636,None,"[2.5254938397556543, 2.8553301552310586, 2.0439505064859986, 2.2903848458081484, 1.5810680058784783, 2.200144572649151, 2.1148458709940314, 1.4854753627441823, 2.317464050836861, 2.1194348260760307, 4.279284822288901, 2.4769850559532642]",328.8417636,None,331.8380703,None,,,,,,,,,,,,,,,,,,,,,,,,,,,,,,,,,,,,,,,,,,,,,,,,,,,,,,,,,,,,,,,,,,,,,,,,,,,,,,,,,,,,,,,,,,,S4,1,2019_Nov_19_1109,test_final,3.2.4,59.98320608
Practice,3,(7x2) - 5,9,,,,,,,,,0,0,0,0,0,12,12,2,,,,,,,,,,,,,,,,,,,,,,,,,,,,,,,,,,,,,,,,,,,,,,,,,,9,333.3364109,None,['9'],0,[2.1143708964809775],333.3364109,None,333.3364109,None,"[2.5254938397556543, 2.8553301552310586, 2.0439505064859986, 2.2903848458081484, 1.5810680058784783, 2.200144572649151, 2.1148458709940314, 1.4854753627441823, 2.317464050836861, 2.1194348260760307, 4.279284822288901, 2.4769850559532642, 2.1143708964809775]",333.3364109,None,335.9672602,None,,,,,,,,,,,,,,,,,,,,,,,,,,,,,,,,,,,,,,,,,,,,,,,,,,,,,,,,,,,,,,,,,,,,,,,,,,,,,,,,,,,,,,,,,,,S4,1,2019_Nov_19_1109,test_final,3.2.4,59.98320608
Practice,12,(8/2) + 4,8,,,,,,,,,0,0,0,0,0,13,13,11,,,,,,,,,,,,,,,,,,,,,,,,,,,,,,,,,,,,,,,,,,,,,,,,,,8,337.4815412,None,['8'],0,[3.580165659543127],337.4815412,None,337.4815412,None,"[2.5254938397556543, 2.8553301552310586, 2.0439505064859986, 2.2903848458081484, 1.5810680058784783, 2.200144572649151, 2.1148458709940314, 1.4854753627441823, 2.317464050836861, 2.1194348260760307, 4.279284822288901, 2.4769850559532642, 2.1143708964809775, 3.580165659543127]",337.4815412,None,341.5773853,None,,,,,,,,,,,,,,,,,,,,,,,,,,,,,,,,,,,,,,,,,,,,,,,,,,,,,,,,,,,,,,,,,,,,,,,,,,,,,,,,,,,,,,,,,,,S4,1,2019_Nov_19_1109,test_final,3.2.4,59.98320608
Practice,14,(6/3) + 4 ,6,,,,,,,,,0,0,0,0,0,14,14,13,,,,,,,,,,,,,,,,,,,,,,,,,,,,,,,,,,,,,,,,,,,,,,,,,,6,343.0750689,None,['6'],0,[2.385382271837443],343.0750689,None,343.0750689,None,"[2.5254938397556543, 2.8553301552310586, 2.0439505064859986, 2.2903848458081484, 1.5810680058784783, 2.200144572649151, 2.1148458709940314, 1.4854753627441823, 2.317464050836861, 2.1194348260760307, 4.279284822288901, 2.4769850559532642, 2.1143708964809775, 3.580165659543127, 2.385382271837443]",343.0750689,None,345.9723654,None,,,,,,,,,,,,,,,,,,,,,,,,,,,,,,,,,,,,,,,,,,,,,,,,,,,,,,,,,,,,,,,,,,,,,,,,,,,,,,,,,,,,,,,,,,,S4,1,2019_Nov_19_1109,test_final,3.2.4,59.98320608
,,,,,,,,,,,,0,0,0,0,,,,,,,,,,,,,,,,,,,,,,,,,,,,,,,,,,,,,,,,,,,,,,,,,,,,,,,,,,,,,,,,,,,,,1,36.36978074,2.42465205,7.078760906,0.68696244,4.197015144,347.5208365,None,space,1.597178713,347.5208365,None,,,,,,,,,,,,,,,,,,,,,,,,,,,,,,,,,,,,,,,,,,,,,,,,,,,,,,,,,,,,,,,,,,,,,,,,,,,,,,,S4,1,2019_Nov_19_1109,test_final,3.2.4,59.98320608
,,,,,,,,,,,,,,,,,,,,,,,,,,,,,,,,,,,,,,,,,,,,,,,,,,,,,,,,,,,,,,,,,,,,,,,,,,,,,,,,,,,,,,,,,,,,,,,,349.6354063,None,space,10.0771254,349.6354063,None,,,,,,,,,,,,,,,,,,,,,,,,,,,,,,,,,,,,,,,,,,,,,,,,,,,,,,,,,,,,,,,,,,,,,,,,,S4,1,2019_Nov_19_1109,test_final,3.2.4,59.98320608
Practice,13,(3x8) - 19 ,5,,,,,,,,,,,,,,,,,0,0,0,0,0,0,0,0,0,0,0,12,,,,,,,,,,,,,,,,,,,,,,,,,,,,,,,,,,,,,,5,,,,,,,,,,,,,,,,,,,,,,,,,,,,,,,,,360.2734374,None,['5'],0,[1.7953073759563267],360.2734374,None,360.2734374,None,360.2734374,None,1,362.1568975,None,362.1568975,None,,,,,,,,,,,,,,,,,,,,,,,,,,,,,,,,,,,,,,,,,,,,,,,,,,,,,,,,,S4,1,2019_Nov_19_1109,test_final,3.2.4,59.98320608
,,,,,,,,,,,,,,,,,,,,0,0,0,0,0,0,0,0,,,,,,,,,,,,,,,,,,,,,,,,,,,,,,,,,,,,,,,,,,,,,,,,,,,,,,,,,,,,,,,,,,,,,,,,,,,,,,,,,,,,,,,,,,,363.4699581,None,,,,,,,,,,,,,,,,,,,,,,,,,,,,,,,,,,,,,,,,,,,,,,,,,,,,,,,S4,1,2019_Nov_19_1109,test_final,3.2.4,59.98320608
Practice,2,(1/1) - 1,0,,,,,,,,,,,,,,,,,0,0,0,0,1,0,1,0,0,0,0,1,,,,,,,,,,,,,,,,,,,,,,,,,,,,,,,,,,,,,,0,,,,,,,,,,,,,,,,,,,,,,,,,,,,,,,,,364.7686577,None,['0'],0,[2.557917656842619],364.7686577,None,364.7686577,None,364.7686577,None,1,367.407223,None,367.407223,None,,,,,,,,,,,,,,,,,,,,,,,,,,,,,,,,,,,,,,,,,,,,,,,,,,,,,,,,,S4,1,2019_Nov_19_1109,test_final,3.2.4,59.98320608
,,,,,,,,,,,,,,,,,,,,0,0,0,0,1,0,1,0,,,,,,,,,,,,,,,,,,,,,,,,,,,,,,,,,,,,,,,,,,,,,,,,,,,,,,,,,,,,,,,,,,,,,,,,,,,,,,,,,,,,,,,,,,,368.7307916,None,,,,,,,,,,,,,,,,,,,,,,,,,,,,,,,,,,,,,,,,,,,,,,,,,,,,,,,S4,1,2019_Nov_19_1109,test_final,3.2.4,59.98320608
,,,,,,,,,,,,,,,,,,,,0,0,0,0,,,,,,,,,,,,,,,,,,,,,,,,,,,,,,,,,,,,,,,,,,,,,,,,,,,,,,,,,,,,,,,,,,,,,,,,,,,,,,,,,,,,,,,,,,,,,,,,,zk,"['z', 'k']",0,"[0.9670871035195887, 1.1286455285735428, 1.5041513573378325]",370.0296413,None,370.0296413,None,370.0296413,None,1,372.0775009,None,,,,,,,,,,,,,,,,,,,,,,,,,,,,,,,,,,,,,,,,,,S4,1,2019_Nov_19_1109,test_final,3.2.4,59.98320608
Practice,8,(3/3) + 5,6,,,,,,,,,,,,,,,,,1,0,1,0,0,0,0,0,0,0,0,7,,,,,,,,,,,,,,,,,,,,,,,,,,,,,,,,,,,,,,6,,,,,,,,,,,,,,,,,,,,,,,,,,,,,,,,,373.6088412,None,['6'],0,[1.7619826230220497],373.6088412,None,373.6088412,None,373.6088412,None,1,375.4528523,None,375.4528523,None,,,,,,,,,,,,,,,,,,,,,,,,,,,,,,,,,,,,,,,,,,,,,,,,,,,,,,,,,S4,1,2019_Nov_19_1109,test_final,3.2.4,59.98320608
,,,,,,,,,,,,,,,,,,,,1,0,1,0,0,0,0,0,,,,,,,,,,,,,,,,,,,,,,,,,,,,,,,,,,,,,,,,,,,,,,,,,,,,,,,,,,,,,,,,,,,,,,,,,,,,,,,,,,,,,,,,,,,376.755784,None,,,,,,,,,,,,,,,,,,,,,,,,,,,,,,,,,,,,,,,,,,,,,,,,,,,,,,,S4,1,2019_Nov_19_1109,test_final,3.2.4,59.98320608
Practice,13,(3x8) - 19 ,5,,,,,,,,,,,,,,,,,1,0,1,0,1,0,1,0,0,0,0,12,,,,,,,,,,,,,,,,,,,,,,,,,,,,,,,,,,,,,,5,,,,,,,,,,,,,,,,,,,,,,,,,,,,,,,,,378.0873329,None,['5'],0,[2.9735202435404062],378.0873329,None,378.0873329,None,378.0873329,None,1,381.1440792,None,381.1440792,None,,,,,,,,,,,,,,,,,,,,,,,,,,,,,,,,,,,,,,,,,,,,,,,,,,,,,,,,,S4,1,2019_Nov_19_1109,test_final,3.2.4,59.98320608
,,,,,,,,,,,,,,,,,,,,1,0,1,0,1,0,1,0,,,,,,,,,,,,,,,,,,,,,,,,,,,,,,,,,,,,,,,,,,,,,,,,,,,,,,,,,,,,,,,,,,,,,,,,,,,,,,,,,,,,,,,,,,,382.46614,None,,,,,,,,,,,,,,,,,,,,,,,,,,,,,,,,,,,,,,,,,,,,,,,,,,,,,,,S4,1,2019_Nov_19_1109,test_final,3.2.4,59.98320608
,,,,,,,,,,,,,,,,,,,,1,0,1,0,,,,,,,,,,,,,,,,,,,,,,,,,,,,,,,,,,,,,,,,,,,,,,,,,,,,,,,,,,,,,,,,,,,,,,,,,,,,,,,,,,,,,,,,,,,,,,,,,hl,"['h', 'l']",0,"[0.5936074103228748, 0.7742617968469858, 1.1029136721044779]",383.7476854,None,383.7476854,None,383.7476854,None,1,385.3795807,None,,,,,,,,,,,,,,,,,,,,,,,,,,,,,,,,,,,,,,,,,,S4,1,2019_Nov_19_1109,test_final,3.2.4,59.98320608
Practice,10,(8/4) + 3,5,,,,,,,,,,,,,,,,,2,0,2,0,0,0,0,0,0,0,0,9,,,,,,,,,,,,,,,,,,,,,,,,,,,,,,,,,,,,,,5,,,,,,,,,,,,,,,,,,,,,,,,,,,,,,,,,386.9271931,None,['5'],0,[3.1268813870847225],386.9271931,None,386.9271931,None,386.9271931,None,1,390.1323713,None,390.1323713,None,,,,,,,,,,,,,,,,,,,,,,,,,,,,,,,,,,,,,,,,,,,,,,,,,,,,,,,,,S4,1,2019_Nov_19_1109,test_final,3.2.4,59.98320608
,,,,,,,,,,,,,,,,,,,,2,0,2,0,0,0,0,0,,,,,,,,,,,,,,,,,,,,,,,,,,,,,,,,,,,,,,,,,,,,,,,,,,,,,,,,,,,,,,,,,,,,,,,,,,,,,,,,,,,,,,,,,,,391.4562731,None,,,,,,,,,,,,,,,,,,,,,,,,,,,,,,,,,,,,,,,,,,,,,,,,,,,,,,,S4,1,2019_Nov_19_1109,test_final,3.2.4,59.98320608
Practice,5,(3/3) + 2,3,,,,,,,,,,,,,,,,,2,0,2,0,1,0,1,0,0,0,0,4,,,,,,,,,,,,,,,,,,,,,,,,,,,,,,,,,,,,,,3,,,,,,,,,,,,,,,,,,,,,,,,,,,,,,,,,392.7542705,None,['3'],0,[1.4188706390559673],392.7542705,None,392.7542705,None,392.7542705,None,1,394.24989,None,394.24989,None,,,,,,,,,,,,,,,,,,,,,,,,,,,,,,,,,,,,,,,,,,,,,,,,,,,,,,,,,S4,1,2019_Nov_19_1109,test_final,3.2.4,59.98320608
,,,,,,,,,,,,,,,,,,,,2,0,2,0,1,0,1,0,,,,,,,,,,,,,,,,,,,,,,,,,,,,,,,,,,,,,,,,,,,,,,,,,,,,,,,,,,,,,,,,,,,,,,,,,,,,,,,,,,,,,,,,,,,395.5679524,None,,,,,,,,,,,,,,,,,,,,,,,,,,,,,,,,,,,,,,,,,,,,,,,,,,,,,,,S4,1,2019_Nov_19_1109,test_final,3.2.4,59.98320608
,,,,,,,,,,,,,,,,,,,,2,0,2,0,,,,,,,,,,,,,,,,,,,,,,,,,,,,,,,,,,,,,,,,,,,,,,,,,,,,,,,,,,,,,,,,,,,,,,,,,,,,,,,,,,,,,,,,,,,,,,,,,vh,"['v', 'h']",0,"[0.5284554678946733, 0.7092843996360898, 1.1173060783185065]",396.8499489,None,396.8499489,None,396.8499489,None,1,398.4984929,None,,,,,,,,,,,,,,,,,,,,,,,,,,,,,,,,,,,,,,,,,,S4,1,2019_Nov_19_1109,test_final,3.2.4,59.98320608
,,,,,,,,,,,,,,,,,,,,,,,,,,,,,,,,,,,,,,,,,,,,,,,,,,,,,,,,,,,,,,,,,,,,,,,,,,,,,,,,,,,,,,,,,,,,,,,,,,,,,,,,,,,,,,,,,,,,,,,,,,,,,,,,,,,,,400.0135038,None,space,4.835213016,400.0135038,None,,,,,,,,,,,,,,,,,,,,,,,,,,,,,,,,,,,,S4,1,2019_Nov_19_1109,test_final,3.2.4,59.98320608
Practice,2,(1/1) - 1,0,,,,,,,,,,,,,,,,,,,,,,,,,,,,,0,0,0,0,0,0,0,0,0,0,0,1,,,,,,,,,,,,,,,,,,,,,,,,,,0,,,,,,,,,,,,,,,,,,,,,,,,,,,,,,,,,,,,,,,,,,,,1,,,,,,,,,,,,,,,,,,,,,,,,,,405.4067427,None,['0'],0,[1.5263877231627703],405.4067427,None,405.4067427,None,405.4067427,None,407.0161019,None,407.0161019,None,,,,,,,,,,,,,,,,,,,,,S4,1,2019_Nov_19_1109,test_final,3.2.4,59.98320608
,,,,,,,,,,,,,,,,,,,,,,,,,,,,,,,,0,0,0,0,0,0,0,0,,,,,,,,,,,,,,,,,,,,,,,,,,,,,,,,,,,,,,,,,,,,,,,,,,,,,,,,,,,,,,,,,,,,,,,,,,,,,,,,,,,,,,,,,,,,,,,,,,,,,,,,,,,,,,,,,,,408.3373545,None,,,,,,,,,,,,,,,,,,,S4,1,2019_Nov_19_1109,test_final,3.2.4,59.98320608
Practice,7,(4x6) - 17,7,,,,,,,,,,,,,,,,,,,,,,,,,,,,,0,0,0,0,1,0,1,0,0,0,0,6,,,,,,,,,,,,,,,,,,,,,,,,,,7,,,,,,,,,,,,,,,,,,,,,,,,,,,,,,,,,,,,,,,,,,,,1,,,,,,,,,,,,,,,,,,,,,,,,,,409.6362458,None,['7'],0,[2.9796737590804696],409.6362458,None,409.6362458,None,409.6362458,None,412.6919505,None,412.6919505,None,,,,,,,,,,,,,,,,,,,,,S4,1,2019_Nov_19_1109,test_final,3.2.4,59.98320608
,,,,,,,,,,,,,,,,,,,,,,,,,,,,,,,,0,0,0,0,1,0,1,0,,,,,,,,,,,,,,,,,,,,,,,,,,,,,,,,,,,,,,,,,,,,,,,,,,,,,,,,,,,,,,,,,,,,,,,,,,,,,,,,,,,,,,,,,,,,,,,,,,,,,,,,,,,,,,,,,,,413.9963818,None,,,,,,,,,,,,,,,,,,,S4,1,2019_Nov_19_1109,test_final,3.2.4,59.98320608
,,,,,,,,,,,,,,,,,,,,,,,,,,,,,,,,0,0,0,0,,,,,,,,,,,,,,,,,,,,,,,,,,,,,,,,,,,,,,,,,,,,,,,,,,,,,,,,,,,,,,,,,,,,,,,,,,,,,,,,,,,,,,,,,,,,,,,,,,,,,,,,,,,,,,,,,,,,,,,,,jv,"['j', 'v']",0,"[0.7926645134575665, 1.0007955031469464, 1.5829026708379388]",415.2948938,None,415.2948938,None,1,JV,415.2948938,None,,,,,,,S4,1,2019_Nov_19_1109,test_final,3.2.4,59.98320608
Practice,12,(8/2) + 4,8,,,,,,,,,,,,,,,,,,,,,,,,,,,,,1,0,1,0,0,0,0,0,0,0,0,11,,,,,,,,,,,,,,,,,,,,,,,,,,8,,,,,,,,,,,,,,,,,,,,,,,,,,,,,,,,,,,,,,,,,,,,1,,,,,,,,,,,,,,,,,,,,,,,,,,417.4267485,None,['8'],0,[2.346672003157437],417.4267485,None,417.4267485,None,417.4267485,None,419.8503635,None,419.8503635,None,,,,,,,,,,,,,,,,,,,,,S4,1,2019_Nov_19_1109,test_final,3.2.4,59.98320608
,,,,,,,,,,,,,,,,,,,,,,,,,,,,,,,,1,0,1,0,0,0,0,0,,,,,,,,,,,,,,,,,,,,,,,,,,,,,,,,,,,,,,,,,,,,,,,,,,,,,,,,,,,,,,,,,,,,,,,,,,,,,,,,,,,,,,,,,,,,,,,,,,,,,,,,,,,,,,,,,,,421.1570809,None,,,,,,,,,,,,,,,,,,,S4,1,2019_Nov_19_1109,test_final,3.2.4,59.98320608
Practice,5,(3/3) + 2,3,,,,,,,,,,,,,,,,,,,,,,,,,,,,,1,0,1,0,1,0,1,0,0,0,0,4,,,,,,,,,,,,,,,,,,,,,,,,,,3,,,,,,,,,,,,,,,,,,,,,,,,,,,,,,,,,,,,,,,,,,,,1,,,,,,,,,,,,,,,,,,,,,,,,,,422.4875184,None,['3'],0,[1.7685896032489836],422.4875184,None,422.4875184,None,422.4875184,None,424.3407579,None,424.3407579,None,,,,,,,,,,,,,,,,,,,,,S4,1,2019_Nov_19_1109,test_final,3.2.4,59.98320608
,,,,,,,,,,,,,,,,,,,,,,,,,,,,,,,,1,0,1,0,1,0,1,0,,,,,,,,,,,,,,,,,,,,,,,,,,,,,,,,,,,,,,,,,,,,,,,,,,,,,,,,,,,,,,,,,,,,,,,,,,,,,,,,,,,,,,,,,,,,,,,,,,,,,,,,,,,,,,,,,,,425.6685723,None,,,,,,,,,,,,,,,,,,,S4,1,2019_Nov_19_1109,test_final,3.2.4,59.98320608
Practice,11,(5x3) - 7,8,,,,,,,,,,,,,,,,,,,,,,,,,,,,,1,0,1,0,2,0,2,0,0,0,0,10,,,,,,,,,,,,,,,,,,,,,,,,,,8,,,,,,,,,,,,,,,,,,,,,,,,,,,,,,,,,,,,,,,,,,,,1,,,,,,,,,,,,,,,,,,,,,,,,,,426.9657733,None,['8'],0,[2.2794953347183764],426.9657733,None,426.9657733,None,426.9657733,None,429.3202882,None,429.3202882,None,,,,,,,,,,,,,,,,,,,,,S4,1,2019_Nov_19_1109,test_final,3.2.4,59.98320608
,,,,,,,,,,,,,,,,,,,,,,,,,,,,,,,,1,0,1,0,2,0,2,0,,,,,,,,,,,,,,,,,,,,,,,,,,,,,,,,,,,,,,,,,,,,,,,,,,,,,,,,,,,,,,,,,,,,,,,,,,,,,,,,,,,,,,,,,,,,,,,,,,,,,,,,,,,,,,,,,,,430.646252,None,,,,,,,,,,,,,,,,,,,S4,1,2019_Nov_19_1109,test_final,3.2.4,59.98320608
,,,,,,,,,,,,,,,,,,,,,,,,,,,,,,,,1,0,1,0,,,,,,,,,,,,,,,,,,,,,,,,,,,,,,,,,,,,,,,,,,,,,,,,,,,,,,,,,,,,,,,,,,,,,,,,,,,,,,,,,,,,,,,,,,,,,,,,,,,,,,,,,,,,,,,,,,,,,,,,,nrx,"['n', 'r', 'x']",0,"[0.560375748667866, 0.7142971996217966, 0.9740530480630696, 1.3267043735831976]",431.9113871,None,431.9113871,None,1,NRX,431.9113871,None,,,,,,,S4,1,2019_Nov_19_1109,test_final,3.2.4,59.98320608
Practice,6,(2x6) - 8,4,,,,,,,,,,,,,,,,,,,,,,,,,,,,,2,0,2,0,0,0,0,0,0,0,0,5,,,,,,,,,,,,,,,,,,,,,,,,,,4,,,,,,,,,,,,,,,,,,,,,,,,,,,,,,,,,,,,,,,,,,,,1,,,,,,,,,,,,,,,,,,,,,,,,,,433.7929096,None,['4'],0,[1.6991896866820753],433.7929096,None,433.7929096,None,433.7929096,None,435.5821717,None,435.5821717,None,,,,,,,,,,,,,,,,,,,,,S4,1,2019_Nov_19_1109,test_final,3.2.4,59.98320608
,,,,,,,,,,,,,,,,,,,,,,,,,,,,,,,,2,0,2,0,0,0,0,0,,,,,,,,,,,,,,,,,,,,,,,,,,,,,,,,,,,,,,,,,,,,,,,,,,,,,,,,,,,,,,,,,,,,,,,,,,,,,,,,,,,,,,,,,,,,,,,,,,,,,,,,,,,,,,,,,,,436.9053228,None,,,,,,,,,,,,,,,,,,,S4,1,2019_Nov_19_1109,test_final,3.2.4,59.98320608
Practice,14,(6/3) + 4 ,6,,,,,,,,,,,,,,,,,,,,,,,,,,,,,2,0,2,0,1,0,1,0,0,0,0,13,,,,,,,,,,,,,,,,,,,,,,,,,,6,,,,,,,,,,,,,,,,,,,,,,,,,,,,,,,,,,,,,,,,,,,,1,,,,,,,,,,,,,,,,,,,,,,,,,,438.2048509,None,['6'],0,[3.4591817879118025],438.2048509,None,438.2048509,None,438.2048509,None,441.7338558,None,441.7338558,None,,,,,,,,,,,,,,,,,,,,,S4,1,2019_Nov_19_1109,test_final,3.2.4,59.98320608
,,,,,,,,,,,,,,,,,,,,,,,,,,,,,,,,2,0,2,0,1,0,1,0,,,,,,,,,,,,,,,,,,,,,,,,,,,,,,,,,,,,,,,,,,,,,,,,,,,,,,,,,,,,,,,,,,,,,,,,,,,,,,,,,,,,,,,,,,,,,,,,,,,,,,,,,,,,,,,,,,,443.0491985,None,,,,,,,,,,,,,,,,,,,S4,1,2019_Nov_19_1109,test_final,3.2.4,59.98320608
Practice,6,(2x6) - 8,4,,,,,,,,,,,,,,,,,,,,,,,,,,,,,2,0,2,0,2,0,2,0,0,0,0,5,,,,,,,,,,,,,,,,,,,,,,,,,,4,,,,,,,,,,,,,,,,,,,,,,,,,,,,,,,,,,,,,,,,,,,,1,,,,,,,,,,,,,,,,,,,,,,,,,,444.3640468,None,['4'],0,[1.6378812668845057],444.3640468,None,444.3640468,None,444.3640468,None,446.0877427,None,446.0877427,None,,,,,,,,,,,,,,,,,,,,,S4,1,2019_Nov_19_1109,test_final,3.2.4,59.98320608
,,,,,,,,,,,,,,,,,,,,,,,,,,,,,,,,2,0,2,0,2,0,2,0,,,,,,,,,,,,,,,,,,,,,,,,,,,,,,,,,,,,,,,,,,,,,,,,,,,,,,,,,,,,,,,,,,,,,,,,,,,,,,,,,,,,,,,,,,,,,,,,,,,,,,,,,,,,,,,,,,,447.4115048,None,,,,,,,,,,,,,,,,,,,S4,1,2019_Nov_19_1109,test_final,3.2.4,59.98320608
Practice,6,(2x6) - 8,4,,,,,,,,,,,,,,,,,,,,,,,,,,,,,2,0,2,0,3,0,3,0,0,0,0,5,,,,,,,,,,,,,,,,,,,,,,,,,,4,,,,,,,,,,,,,,,,,,,,,,,,,,,,,,,,,,,,,,,,,,,,1,,,,,,,,,,,,,,,,,,,,,,,,,,448.7090665,None,['4'],0,[1.740815743803978],448.7090665,None,448.7090665,None,448.7090665,None,450.5289209,None,450.5289209,None,,,,,,,,,,,,,,,,,,,,,S4,1,2019_Nov_19_1109,test_final,3.2.4,59.98320608
,,,,,,,,,,,,,,,,,,,,,,,,,,,,,,,,2,0,2,0,3,0,3,0,,,,,,,,,,,,,,,,,,,,,,,,,,,,,,,,,,,,,,,,,,,,,,,,,,,,,,,,,,,,,,,,,,,,,,,,,,,,,,,,,,,,,,,,,,,,,,,,,,,,,,,,,,,,,,,,,,,451.8558383,None,,,,,,,,,,,,,,,,,,,S4,1,2019_Nov_19_1109,test_final,3.2.4,59.98320608
,,,,,,,,,,,,,,,,,,,,,,,,,,,,,,,,2,0,2,0,,,,,,,,,,,,,,,,,,,,,,,,,,,,,,,,,,,,,,,,,,,,,,,,,,,,,,,,,,,,,,,,,,,,,,,,,,,,,,,,,,,,,,,,,,,,,,,,,,,,,,,,,,,,,,,,,,,,,,,,,srqj,"['s', 'r', 'q', 'j']",0,"[0.7972414791584015, 0.9324308694340289, 1.135948222130537, 1.2901595239527524, 1.5852267681621015]",453.1382706,None,453.1382706,None,1,SRQJ,453.1382706,None,,,,,,,S4,1,2019_Nov_19_1109,test_final,3.2.4,59.98320608
Practice,2,(1/1) - 1,0,,,,,,,,,,,,,,,,,,,,,,,,,,,,,3,0,3,0,0,0,0,0,0,0,0,1,,,,,,,,,,,,,,,,,,,,,,,,,,0,,,,,,,,,,,,,,,,,,,,,,,,,,,,,,,,,,,,,,,,,,,,1,,,,,,,,,,,,,,,,,,,,,,,,,,455.2853181,None,['0'],0,[2.0279960087500513],455.2853181,None,455.2853181,None,455.2853181,None,457.3931836,None,457.3931836,None,,,,,,,,,,,,,,,,,,,,,S4,1,2019_Nov_19_1109,test_final,3.2.4,59.98320608
,,,,,,,,,,,,,,,,,,,,,,,,,,,,,,,,3,0,3,0,0,0,0,0,,,,,,,,,,,,,,,,,,,,,,,,,,,,,,,,,,,,,,,,,,,,,,,,,,,,,,,,,,,,,,,,,,,,,,,,,,,,,,,,,,,,,,,,,,,,,,,,,,,,,,,,,,,,,,,,,,,458.6987394,None,,,,,,,,,,,,,,,,,,,S4,1,2019_Nov_19_1109,test_final,3.2.4,59.98320608
Practice,13,(3x8) - 19 ,5,,,,,,,,,,,,,,,,,,,,,,,,,,,,,3,0,3,0,1,0,1,0,0,0,0,12,,,,,,,,,,,,,,,,,,,,,,,,,,5,,,,,,,,,,,,,,,,,,,,,,,,,,,,,,,,,,,,,,,,,,,,1,,,,,,,,,,,,,,,,,,,,,,,,,,460.0140698,None,['5'],0,[1.9003025451675057],460.0140698,None,460.0140698,None,460.0140698,None,462.0032444,None,462.0032444,None,,,,,,,,,,,,,,,,,,,,,S4,1,2019_Nov_19_1109,test_final,3.2.4,59.98320608
,,,,,,,,,,,,,,,,,,,,,,,,,,,,,,,,3,0,3,0,1,0,1,0,,,,,,,,,,,,,,,,,,,,,,,,,,,,,,,,,,,,,,,,,,,,,,,,,,,,,,,,,,,,,,,,,,,,,,,,,,,,,,,,,,,,,,,,,,,,,,,,,,,,,,,,,,,,,,,,,,,463.3272548,None,,,,,,,,,,,,,,,,,,,S4,1,2019_Nov_19_1109,test_final,3.2.4,59.98320608
Practice,11,(5x3) - 7,8,,,,,,,,,,,,,,,,,,,,,,,,,,,,,3,0,3,0,2,0,2,0,0,0,0,10,,,,,,,,,,,,,,,,,,,,,,,,,,8,,,,,,,,,,,,,,,,,,,,,,,,,,,,,,,,,,,,,,,,,,,,1,,,,,,,,,,,,,,,,,,,,,,,,,,464.6248355,None,['8'],0,[1.4169382988475263],464.6248355,None,464.6248355,None,464.6248355,None,466.1072279,None,466.1072279,None,,,,,,,,,,,,,,,,,,,,,S4,1,2019_Nov_19_1109,test_final,3.2.4,59.98320608
,,,,,,,,,,,,,,,,,,,,,,,,,,,,,,,,3,0,3,0,2,0,2,0,,,,,,,,,,,,,,,,,,,,,,,,,,,,,,,,,,,,,,,,,,,,,,,,,,,,,,,,,,,,,,,,,,,,,,,,,,,,,,,,,,,,,,,,,,,,,,,,,,,,,,,,,,,,,,,,,,,467.4393675,None,,,,,,,,,,,,,,,,,,,S4,1,2019_Nov_19_1109,test_final,3.2.4,59.98320608
Practice,5,(3/3) + 2,3,,,,,,,,,,,,,,,,,,,,,,,,,,,,,3,0,3,0,3,0,3,0,0,0,0,4,,,,,,,,,,,,,,,,,,,,,,,,,,3,,,,,,,,,,,,,,,,,,,,,,,,,,,,,,,,,,,,,,,,,,,,1,,,,,,,,,,,,,,,,,,,,,,,,,,468.7377413,None,['3'],0,[1.967238375917077],468.7377413,None,468.7377413,None,468.7377413,None,470.7854133,None,470.7854133,None,,,,,,,,,,,,,,,,,,,,,S4,1,2019_Nov_19_1109,test_final,3.2.4,59.98320608
,,,,,,,,,,,,,,,,,,,,,,,,,,,,,,,,3,0,3,0,3,0,3,0,,,,,,,,,,,,,,,,,,,,,,,,,,,,,,,,,,,,,,,,,,,,,,,,,,,,,,,,,,,,,,,,,,,,,,,,,,,,,,,,,,,,,,,,,,,,,,,,,,,,,,,,,,,,,,,,,,,472.1176418,None,,,,,,,,,,,,,,,,,,,S4,1,2019_Nov_19_1109,test_final,3.2.4,59.98320608
Practice,9,(4/2) + 5,7,,,,,,,,,,,,,,,,,,,,,,,,,,,,,3,0,3,0,4,0,4,0,0,0,0,8,,,,,,,,,,,,,,,,,,,,,,,,,,7,,,,,,,,,,,,,,,,,,,,,,,,,,,,,,,,,,,,,,,,,,,,1,,,,,,,,,,,,,,,,,,,,,,,,,,473.415695,None,['7'],0,[1.8058414496481419],473.415695,None,473.415695,None,473.415695,None,475.2973134,None,475.2973134,None,,,,,,,,,,,,,,,,,,,,,S4,1,2019_Nov_19_1109,test_final,3.2.4,59.98320608
,,,,,,,,,,,,,,,,,,,,,,,,,,,,,,,,3,0,3,0,4,0,4,0,,,,,,,,,,,,,,,,,,,,,,,,,,,,,,,,,,,,,,,,,,,,,,,,,,,,,,,,,,,,,,,,,,,,,,,,,,,,,,,,,,,,,,,,,,,,,,,,,,,,,,,,,,,,,,,,,,,476.6121173,None,,,,,,,,,,,,,,,,,,,S4,1,2019_Nov_19_1109,test_final,3.2.4,59.98320608
,,,,,,,,,,,,,,,,,,,,,,,,,,,,,,,,3,0,3,0,,,,,,,,,,,,,,,,,,,,,,,,,,,,,,,,,,,,,,,,,,,,,,,,,,,,,,,,,,,,,,,,,,,,,,,,,,,,,,,,,,,,,,,,,,,,,,,,,,,,,,,,,,,,,,,,,,,,,,,,,jhxsv,"['j', 'h', 'x', 's', 'v']",0,"[0.4132598009891808, 0.6470253248699009, 0.8663116991519928, 1.1496946336701512, 1.5426511140540242, 1.8704708139412105]",477.8941191,None,477.8941191,None,1,JHXSV,477.8941191,None,,,,,,,S4,1,2019_Nov_19_1109,test_final,3.2.4,59.98320608
Practice,1,(1x2) + 1,3,,,,,,,,,,,,,,,,,,,,,,,,,,,,,4,0,4,0,0,0,0,0,0,0,0,0,,,,,,,,,,,,,,,,,,,,,,,,,,3,,,,,,,,,,,,,,,,,,,,,,,,,,,,,,,,,,,,,,,,,,,,1,,,,,,,,,,,,,,,,,,,,,,,,,,480.3081183,None,['3'],0,[2.0382716138847172],480.3081183,None,480.3081183,None,480.3081183,None,482.4325917,None,482.4325917,None,,,,,,,,,,,,,,,,,,,,,S4,1,2019_Nov_19_1109,test_final,3.2.4,59.98320608
,,,,,,,,,,,,,,,,,,,,,,,,,,,,,,,,4,0,4,0,0,0,0,0,,,,,,,,,,,,,,,,,,,,,,,,,,,,,,,,,,,,,,,,,,,,,,,,,,,,,,,,,,,,,,,,,,,,,,,,,,,,,,,,,,,,,,,,,,,,,,,,,,,,,,,,,,,,,,,,,,,483.754779,None,,,,,,,,,,,,,,,,,,,S4,1,2019_Nov_19_1109,test_final,3.2.4,59.98320608
Practice,15,(9/3) - 2,1,,,,,,,,,,,,,,,,,,,,,,,,,,,,,4,0,4,0,1,0,1,0,0,0,0,14,,,,,,,,,,,,,,,,,,,,,,,,,,1,,,,,,,,,,,,,,,,,,,,,,,,,,,,,,,,,,,,,,,,,,,,1,,,,,,,,,,,,,,,,,,,,,,,,,,485.0694066,None,['1'],0,[1.463730544783175],485.0694066,None,485.0694066,None,485.0694066,None,486.6130468,None,486.6130468,None,,,,,,,,,,,,,,,,,,,,,S4,1,2019_Nov_19_1109,test_final,3.2.4,59.98320608
,,,,,,,,,,,,,,,,,,,,,,,,,,,,,,,,4,0,4,0,1,0,1,0,,,,,,,,,,,,,,,,,,,,,,,,,,,,,,,,,,,,,,,,,,,,,,,,,,,,,,,,,,,,,,,,,,,,,,,,,,,,,,,,,,,,,,,,,,,,,,,,,,,,,,,,,,,,,,,,,,,487.9168861,None,,,,,,,,,,,,,,,,,,,S4,1,2019_Nov_19_1109,test_final,3.2.4,59.98320608
Practice,9,(4/2) + 5,7,,,,,,,,,,,,,,,,,,,,,,,,,,,,,4,0,4,0,2,0,2,0,0,0,0,8,,,,,,,,,,,,,,,,,,,,,,,,,,7,,,,,,,,,,,,,,,,,,,,,,,,,,,,,,,,,,,,,,,,,,,,1,,,,,,,,,,,,,,,,,,,,,,,,,,489.2482443,None,['7'],0,[1.8475101729854941],489.2482443,None,489.2482443,None,489.2482443,None,491.1715198,None,491.1715198,None,,,,,,,,,,,,,,,,,,,,,S4,1,2019_Nov_19_1109,test_final,3.2.4,59.98320608
,,,,,,,,,,,,,,,,,,,,,,,,,,,,,,,,4,0,4,0,2,0,2,0,,,,,,,,,,,,,,,,,,,,,,,,,,,,,,,,,,,,,,,,,,,,,,,,,,,,,,,,,,,,,,,,,,,,,,,,,,,,,,,,,,,,,,,,,,,,,,,,,,,,,,,,,,,,,,,,,,,492.4782802,None,,,,,,,,,,,,,,,,,,,S4,1,2019_Nov_19_1109,test_final,3.2.4,59.98320608
Practice,14,(6/3) + 4 ,6,,,,,,,,,,,,,,,,,,,,,,,,,,,,,4,0,4,0,3,0,3,0,0,0,0,13,,,,,,,,,,,,,,,,,,,,,,,,,,6,,,,,,,,,,,,,,,,,,,,,,,,,,,,,,,,,,,,,,,,,,,,1,,,,,,,,,,,,,,,,,,,,,,,,,,493.8095834,None,['6'],0,[2.5329079595394433],493.8095834,None,493.8095834,None,493.8095834,None,496.4223739,None,496.4223739,None,,,,,,,,,,,,,,,,,,,,,S4,1,2019_Nov_19_1109,test_final,3.2.4,59.98320608
,,,,,,,,,,,,,,,,,,,,,,,,,,,,,,,,4,0,4,0,3,0,3,0,,,,,,,,,,,,,,,,,,,,,,,,,,,,,,,,,,,,,,,,,,,,,,,,,,,,,,,,,,,,,,,,,,,,,,,,,,,,,,,,,,,,,,,,,,,,,,,,,,,,,,,,,,,,,,,,,,,497.722729,None,,,,,,,,,,,,,,,,,,,S4,1,2019_Nov_19_1109,test_final,3.2.4,59.98320608
Practice,6,(2x6) - 8,4,,,,,,,,,,,,,,,,,,,,,,,,,,,,,4,0,4,0,4,0,4,0,0,0,0,5,,,,,,,,,,,,,,,,,,,,,,,,,,4,,,,,,,,,,,,,,,,,,,,,,,,,,,,,,,,,,,,,,,,,,,,1,,,,,,,,,,,,,,,,,,,,,,,,,,499.0540674,None,['4'],0,[2.151075833942741],499.0540674,None,499.0540674,None,499.0540674,None,501.2925566,None,501.2925566,None,,,,,,,,,,,,,,,,,,,,,S4,1,2019_Nov_19_1109,test_final,3.2.4,59.98320608
,,,,,,,,,,,,,,,,,,,,,,,,,,,,,,,,4,0,4,0,4,0,4,0,,,,,,,,,,,,,,,,,,,,,,,,,,,,,,,,,,,,,,,,,,,,,,,,,,,,,,,,,,,,,,,,,,,,,,,,,,,,,,,,,,,,,,,,,,,,,,,,,,,,,,,,,,,,,,,,,,,502.6169422,None,,,,,,,,,,,,,,,,,,,S4,1,2019_Nov_19_1109,test_final,3.2.4,59.98320608
Practice,4,(4x4) - 14,2,,,,,,,,,,,,,,,,,,,,,,,,,,,,,4,0,4,0,5,0,5,0,0,0,0,3,,,,,,,,,,,,,,,,,,,,,,,,,,2,,,,,,,,,,,,,,,,,,,,,,,,,,,,,,,,,,,,,,,,,,,,1,,,,,,,,,,,,,,,,,,,,,,,,,,503.9150846,None,['2'],0,[1.2505839332006872],503.9150846,None,503.9150846,None,503.9150846,None,505.2326474,None,505.2326474,None,,,,,,,,,,,,,,,,,,,,,S4,1,2019_Nov_19_1109,test_final,3.2.4,59.98320608
,,,,,,,,,,,,,,,,,,,,,,,,,,,,,,,,4,0,4,0,5,0,5,0,,,,,,,,,,,,,,,,,,,,,,,,,,,,,,,,,,,,,,,,,,,,,,,,,,,,,,,,,,,,,,,,,,,,,,,,,,,,,,,,,,,,,,,,,,,,,,,,,,,,,,,,,,,,,,,,,,,506.5463568,None,,,,,,,,,,,,,,,,,,,S4,1,2019_Nov_19_1109,test_final,3.2.4,59.98320608
,,,,,,,,,,,,,,,,,,,,,,,,,,,,,,,,4,0,4,0,,,,,,,,,,,,,,,,,,,,,,,,,,,,,,,,,,,,,,,,,,,,,,,,,,,,,,,,,,,,,,,,,,,,,,,,,,,,,,,,,,,,,,,,,,,,,,,,,,,,,,,,,,,,,,,,,,,,,,,,,tzkjhx,"['t', 'z', 'k', 'j', 'h', 'x']",0,"[0.5575555195100605, 0.7949381866492331, 1.5484530702233315, 1.8136748308315873, 2.03384803654626, 2.3451042687520385, 2.6108799907378852, 3.013522148132324, 3.7618183037266135]",507.811185,None,507.811185,None,0,TZKJXH,507.811185,None,,,,,,,S4,1,2019_Nov_19_1109,test_final,3.2.4,59.98320608
Practice,7,(4x6) - 17,7,,,,,,,,,,,,,,,,,,,,,,,,,,,,,5,0,5,0,0,0,0,0,0,0,0,6,,,,,,,,,,,,,,,,,,,,,,,,,,7,,,,,,,,,,,,,,,,,,,,,,,,,,,,,,,,,,,,,,,,,,,,1,,,,,,,,,,,,,,,,,,,,,,,,,,512.1224314,None,['7'],0,[3.4964318708516657],512.1224314,None,512.1224314,None,512.1224314,None,515.6919067,None,515.6919067,None,,,,,,,,,,,,,,,,,,,,,S4,1,2019_Nov_19_1109,test_final,3.2.4,59.98320608
,,,,,,,,,,,,,,,,,,,,,,,,,,,,,,,,5,0,5,0,0,0,0,0,,,,,,,,,,,,,,,,,,,,,,,,,,,,,,,,,,,,,,,,,,,,,,,,,,,,,,,,,,,,,,,,,,,,,,,,,,,,,,,,,,,,,,,,,,,,,,,,,,,,,,,,,,,,,,,,,,,517.0181813,None,,,,,,,,,,,,,,,,,,,S4,1,2019_Nov_19_1109,test_final,3.2.4,59.98320608
Practice,14,(6/3) + 4 ,6,,,,,,,,,,,,,,,,,,,,,,,,,,,,,5,0,5,0,1,0,1,0,0,0,0,13,,,,,,,,,,,,,,,,,,,,,,,,,,6,,,,,,,,,,,,,,,,,,,,,,,,,,,,,,,,,,,,,,,,,,,,1,,,,,,,,,,,,,,,,,,,,,,,,,,518.3331865,None,['6'],0,[3.1020765602588654],518.3331865,None,518.3331865,None,518.3331865,None,521.5211873,None,521.5211873,None,,,,,,,,,,,,,,,,,,,,,S4,1,2019_Nov_19_1109,test_final,3.2.4,59.98320608
,,,,,,,,,,,,,,,,,,,,,,,,,,,,,,,,5,0,5,0,1,0,1,0,,,,,,,,,,,,,,,,,,,,,,,,,,,,,,,,,,,,,,,,,,,,,,,,,,,,,,,,,,,,,,,,,,,,,,,,,,,,,,,,,,,,,,,,,,,,,,,,,,,,,,,,,,,,,,,,,,,522.8450905,None,,,,,,,,,,,,,,,,,,,S4,1,2019_Nov_19_1109,test_final,3.2.4,59.98320608
Practice,1,(1x2) + 1,3,,,,,,,,,,,,,,,,,,,,,,,,,,,,,5,0,5,0,2,0,2,0,0,0,0,0,,,,,,,,,,,,,,,,,,,,,,,,,,3,,,,,,,,,,,,,,,,,,,,,,,,,,,,,,,,,,,,,,,,,,,,1,,,,,,,,,,,,,,,,,,,,,,,,,,524.1603398,None,['3'],0,[1.4218329726718366],524.1603398,None,524.1603398,None,524.1603398,None,525.6709613,None,525.6709613,None,,,,,,,,,,,,,,,,,,,,,S4,1,2019_Nov_19_1109,test_final,3.2.4,59.98320608
,,,,,,,,,,,,,,,,,,,,,,,,,,,,,,,,5,0,5,0,2,0,2,0,,,,,,,,,,,,,,,,,,,,,,,,,,,,,,,,,,,,,,,,,,,,,,,,,,,,,,,,,,,,,,,,,,,,,,,,,,,,,,,,,,,,,,,,,,,,,,,,,,,,,,,,,,,,,,,,,,,526.9903267,None,,,,,,,,,,,,,,,,,,,S4,1,2019_Nov_19_1109,test_final,3.2.4,59.98320608
Practice,4,(4x4) - 14,2,,,,,,,,,,,,,,,,,,,,,,,,,,,,,5,0,5,0,3,0,3,0,0,0,0,3,,,,,,,,,,,,,,,,,,,,,,,,,,2,,,,,,,,,,,,,,,,,,,,,,,,,,,,,,,,,,,,,,,,,,,,1,,,,,,,,,,,,,,,,,,,,,,,,,,528.338633,None,['2'],0,[1.169529679697007],528.338633,None,528.338633,None,528.338633,None,529.5970105,None,529.5970105,None,,,,,,,,,,,,,,,,,,,,,S4,1,2019_Nov_19_1109,test_final,3.2.4,59.98320608
,,,,,,,,,,,,,,,,,,,,,,,,,,,,,,,,5,0,5,0,3,0,3,0,,,,,,,,,,,,,,,,,,,,,,,,,,,,,,,,,,,,,,,,,,,,,,,,,,,,,,,,,,,,,,,,,,,,,,,,,,,,,,,,,,,,,,,,,,,,,,,,,,,,,,,,,,,,,,,,,,,530.9186615,None,,,,,,,,,,,,,,,,,,,S4,1,2019_Nov_19_1109,test_final,3.2.4,59.98320608
Practice,8,(3/3) + 5,6,,,,,,,,,,,,,,,,,,,,,,,,,,,,,5,0,5,0,4,0,4,0,0,0,0,7,,,,,,,,,,,,,,,,,,,,,,,,,,6,,,,,,,,,,,,,,,,,,,,,,,,,,,,,,,,,,,,,,,,,,,,1,,,,,,,,,,,,,,,,,,,,,,,,,,532.2341601,None,['6'],0,[1.439278687350452],532.2341601,None,532.2341601,None,532.2341601,None,533.7589177,None,533.7589177,None,,,,,,,,,,,,,,,,,,,,,S4,1,2019_Nov_19_1109,test_final,3.2.4,59.98320608
,,,,,,,,,,,,,,,,,,,,,,,,,,,,,,,,5,0,5,0,4,0,4,0,,,,,,,,,,,,,,,,,,,,,,,,,,,,,,,,,,,,,,,,,,,,,,,,,,,,,,,,,,,,,,,,,,,,,,,,,,,,,,,,,,,,,,,,,,,,,,,,,,,,,,,,,,,,,,,,,,,535.0816777,None,,,,,,,,,,,,,,,,,,,S4,1,2019_Nov_19_1109,test_final,3.2.4,59.98320608
Practice,11,(5x3) - 7,8,,,,,,,,,,,,,,,,,,,,,,,,,,,,,5,0,5,0,5,0,5,0,0,0,0,10,,,,,,,,,,,,,,,,,,,,,,,,,,8,,,,,,,,,,,,,,,,,,,,,,,,,,,,,,,,,,,,,,,,,,,,1,,,,,,,,,,,,,,,,,,,,,,,,,,536.3962178,None,['8'],0,[2.0296124038286507],536.3962178,None,536.3962178,None,536.3962178,None,538.5043661,None,538.5043661,None,,,,,,,,,,,,,,,,,,,,,S4,1,2019_Nov_19_1109,test_final,3.2.4,59.98320608
,,,,,,,,,,,,,,,,,,,,,,,,,,,,,,,,5,0,5,0,5,0,5,0,,,,,,,,,,,,,,,,,,,,,,,,,,,,,,,,,,,,,,,,,,,,,,,,,,,,,,,,,,,,,,,,,,,,,,,,,,,,,,,,,,,,,,,,,,,,,,,,,,,,,,,,,,,,,,,,,,,539.8264219,None,,,,,,,,,,,,,,,,,,,S4,1,2019_Nov_19_1109,test_final,3.2.4,59.98320608
,,,,,,,,,,,,,,,,,,,,,,,,,,,,,,,,5,0,5,0,,,,,,,,,,,,,,,,,,,,,,,,,,,,,,,,,,,,,,,,,,,,,,,,,,,,,,,,,,,,,,,,,,,,,,,,,,,,,,,,,,,,,,,,,,,,,,,,,,,,,,,,,,,,,,,,,,,,,,,,,hzlnxk,"['h', 'z', 'l', 'n', 'x', 'k']",0,"[0.6925784749910235, 0.9237360451370478, 1.1347239366732538, 1.3573658117093146, 1.494278087746352, 1.667259885929525, 1.9788810764439404]",541.1083743,None,541.1083743,None,1,HZLNXK,541.1083743,None,,,,,,,S4,1,2019_Nov_19_1109,test_final,3.2.4,59.98320608
Practice,5,(3/3) + 2,3,,,,,,,,,,,,,,,,,,,,,,,,,,,,,6,0,6,0,0,0,0,0,0,0,0,4,,,,,,,,,,,,,,,,,,,,,,,,,,3,,,,,,,,,,,,,,,,,,,,,,,,,,,,,,,,,,,,,,,,,,,,1,,,,,,,,,,,,,,,,,,,,,,,,,,543.6377406,None,['3'],0,[2.1708139101974666],543.6377406,None,543.6377406,None,543.6377406,None,545.8953465,None,545.8953465,None,,,,,,,,,,,,,,,,,,,,,S4,1,2019_Nov_19_1109,test_final,3.2.4,59.98320608
,,,,,,,,,,,,,,,,,,,,,,,,,,,,,,,,6,0,6,0,0,0,0,0,,,,,,,,,,,,,,,,,,,,,,,,,,,,,,,,,,,,,,,,,,,,,,,,,,,,,,,,,,,,,,,,,,,,,,,,,,,,,,,,,,,,,,,,,,,,,,,,,,,,,,,,,,,,,,,,,,,547.2179189,None,,,,,,,,,,,,,,,,,,,S4,1,2019_Nov_19_1109,test_final,3.2.4,59.98320608
Practice,15,(9/3) - 2,1,,,,,,,,,,,,,,,,,,,,,,,,,,,,,6,0,6,0,1,0,1,0,0,0,0,14,,,,,,,,,,,,,,,,,,,,,,,,,,1,,,,,,,,,,,,,,,,,,,,,,,,,,,,,,,,,,,,,,,,,,,,1,,,,,,,,,,,,,,,,,,,,,,,,,,548.5329309,None,['1'],0,[2.037121730390936],548.5329309,None,548.5329309,None,548.5329309,None,550.6537183,None,550.6537183,None,,,,,,,,,,,,,,,,,,,,,S4,1,2019_Nov_19_1109,test_final,3.2.4,59.98320608
,,,,,,,,,,,,,,,,,,,,,,,,,,,,,,,,6,0,6,0,1,0,1,0,,,,,,,,,,,,,,,,,,,,,,,,,,,,,,,,,,,,,,,,,,,,,,,,,,,,,,,,,,,,,,,,,,,,,,,,,,,,,,,,,,,,,,,,,,,,,,,,,,,,,,,,,,,,,,,,,,,551.9794562,None,,,,,,,,,,,,,,,,,,,S4,1,2019_Nov_19_1109,test_final,3.2.4,59.98320608
Practice,15,(9/3) - 2,1,,,,,,,,,,,,,,,,,,,,,,,,,,,,,6,0,6,0,2,0,2,0,0,0,0,14,,,,,,,,,,,,,,,,,,,,,,,,,,1,,,,,,,,,,,,,,,,,,,,,,,,,,,,,,,,,,,,,,,,,,,,1,,,,,,,,,,,,,,,,,,,,,,,,,,553.2778959,None,['1'],0,[1.2908813301473856],553.2778959,None,553.2778959,None,553.2778959,None,554.637559,None,554.637559,None,,,,,,,,,,,,,,,,,,,,,S4,1,2019_Nov_19_1109,test_final,3.2.4,59.98320608
,,,,,,,,,,,,,,,,,,,,,,,,,,,,,,,,6,0,6,0,2,0,2,0,,,,,,,,,,,,,,,,,,,,,,,,,,,,,,,,,,,,,,,,,,,,,,,,,,,,,,,,,,,,,,,,,,,,,,,,,,,,,,,,,,,,,,,,,,,,,,,,,,,,,,,,,,,,,,,,,,,555.9581821,None,,,,,,,,,,,,,,,,,,,S4,1,2019_Nov_19_1109,test_final,3.2.4,59.98320608
Practice,8,(3/3) + 5,6,,,,,,,,,,,,,,,,,,,,,,,,,,,,,6,0,6,0,3,0,3,0,0,0,0,7,,,,,,,,,,,,,,,,,,,,,,,,,,6,,,,,,,,,,,,,,,,,,,,,,,,,,,,,,,,,,,,,,,,,,,,1,,,,,,,,,,,,,,,,,,,,,,,,,,557.2735629,None,['6'],0,[1.665761617012322],557.2735629,None,557.2735629,None,557.2735629,None,559.0237907,None,559.0237907,None,,,,,,,,,,,,,,,,,,,,,S4,1,2019_Nov_19_1109,test_final,3.2.4,59.98320608
,,,,,,,,,,,,,,,,,,,,,,,,,,,,,,,,6,0,6,0,3,0,3,0,,,,,,,,,,,,,,,,,,,,,,,,,,,,,,,,,,,,,,,,,,,,,,,,,,,,,,,,,,,,,,,,,,,,,,,,,,,,,,,,,,,,,,,,,,,,,,,,,,,,,,,,,,,,,,,,,,,560.3529588,None,,,,,,,,,,,,,,,,,,,S4,1,2019_Nov_19_1109,test_final,3.2.4,59.98320608
Practice,8,(3/3) + 5,6,,,,,,,,,,,,,,,,,,,,,,,,,,,,,6,0,6,0,4,0,4,0,0,0,0,7,,,,,,,,,,,,,,,,,,,,,,,,,,6,,,,,,,,,,,,,,,,,,,,,,,,,,,,,,,,,,,,,,,,,,,,1,,,,,,,,,,,,,,,,,,,,,,,,,,561.652463,None,['6'],0,[1.3831819430924952],561.652463,None,561.652463,None,561.652463,None,563.1107372,None,563.1107372,None,,,,,,,,,,,,,,,,,,,,,S4,1,2019_Nov_19_1109,test_final,3.2.4,59.98320608
,,,,,,,,,,,,,,,,,,,,,,,,,,,,,,,,6,0,6,0,4,0,4,0,,,,,,,,,,,,,,,,,,,,,,,,,,,,,,,,,,,,,,,,,,,,,,,,,,,,,,,,,,,,,,,,,,,,,,,,,,,,,,,,,,,,,,,,,,,,,,,,,,,,,,,,,,,,,,,,,,,564.4311227,None,,,,,,,,,,,,,,,,,,,S4,1,2019_Nov_19_1109,test_final,3.2.4,59.98320608
Practice,4,(4x4) - 14,2,,,,,,,,,,,,,,,,,,,,,,,,,,,,,6,0,6,0,5,0,5,0,0,0,0,3,,,,,,,,,,,,,,,,,,,,,,,,,,2,,,,,,,,,,,,,,,,,,,,,,,,,,,,,,,,,,,,,,,,,,,,1,,,,,,,,,,,,,,,,,,,,,,,,,,565.7468427,None,['2'],0,[1.5121716256253421],565.7468427,None,565.7468427,None,565.7468427,None,567.3371679,None,567.3371679,None,,,,,,,,,,,,,,,,,,,,,S4,1,2019_Nov_19_1109,test_final,3.2.4,59.98320608
,,,,,,,,,,,,,,,,,,,,,,,,,,,,,,,,6,0,6,0,5,0,5,0,,,,,,,,,,,,,,,,,,,,,,,,,,,,,,,,,,,,,,,,,,,,,,,,,,,,,,,,,,,,,,,,,,,,,,,,,,,,,,,,,,,,,,,,,,,,,,,,,,,,,,,,,,,,,,,,,,,568.6441307,None,,,,,,,,,,,,,,,,,,,S4,1,2019_Nov_19_1109,test_final,3.2.4,59.98320608
Practice,13,(3x8) - 19 ,5,,,,,,,,,,,,,,,,,,,,,,,,,,,,,6,0,6,0,6,0,6,0,0,0,0,12,,,,,,,,,,,,,,,,,,,,,,,,,,5,,,,,,,,,,,,,,,,,,,,,,,,,,,,,,,,,,,,,,,,,,,,1,,,,,,,,,,,,,,,,,,,,,,,,,,569.9596716,None,['5'],0,[2.5078358501195908],569.9596716,None,569.9596716,None,569.9596716,None,572.5502359,None,572.5502359,None,,,,,,,,,,,,,,,,,,,,,S4,1,2019_Nov_19_1109,test_final,3.2.4,59.98320608
,,,,,,,,,,,,,,,,,,,,,,,,,,,,,,,,6,0,6,0,6,0,6,0,,,,,,,,,,,,,,,,,,,,,,,,,,,,,,,,,,,,,,,,,,,,,,,,,,,,,,,,,,,,,,,,,,,,,,,,,,,,,,,,,,,,,,,,,,,,,,,,,,,,,,,,,,,,,,,,,,,573.8712512,None,,,,,,,,,,,,,,,,,,,S4,1,2019_Nov_19_1109,test_final,3.2.4,59.98320608
,,,,,,,,,,,,,,,,,,,,,,,,,,,,,,,,6,0,6,0,,,,,,,,,,,,,,,,,,,,,,,,,,,,,,,,,,,,,,,,,,,,,,,,,,,,,,,,,,,,,,,,,,,,,,,,,,,,,,,,,,,,,,,,,,,,,,,,,,,,,,,,,,,,,,,,,,,,,,,,,kslvnht,"['k', 's', 'l', 'v', 'n', 'h', 't']",0,"[0.7700642463751137, 0.9750040550716221, 1.1119417194277048, 1.3988970145583153, 1.6526703666895628, 2.03908897889778, 2.2338198269717395, 2.618658363353461]",575.1541055,None,575.1541055,None,0,KLSVNHT,575.1541055,None,,,,,,,S4,1,2019_Nov_19_1109,test_final,3.2.4,59.98320608
Practice,9,(4/2) + 5,7,,,,,,,,,,,,,,,,,,,,,,,,,,,,,7,0,7,0,0,0,0,0,0,0,0,8,,,,,,,,,,,,,,,,,,,,,,,,,,7,,,,,,,,,,,,,,,,,,,,,,,,,,,,,,,,,,,,,,,,,,,,1,,,,,,,,,,,,,,,,,,,,,,,,,,578.3333382,None,['7'],0,[1.977456504944712],578.3333382,None,578.3333382,None,578.3333382,None,580.3899582,None,580.3899582,None,,,,,,,,,,,,,,,,,,,,,S4,1,2019_Nov_19_1109,test_final,3.2.4,59.98320608
,,,,,,,,,,,,,,,,,,,,,,,,,,,,,,,,7,0,7,0,0,0,0,0,,,,,,,,,,,,,,,,,,,,,,,,,,,,,,,,,,,,,,,,,,,,,,,,,,,,,,,,,,,,,,,,,,,,,,,,,,,,,,,,,,,,,,,,,,,,,,,,,,,,,,,,,,,,,,,,,,,581.6976269,None,,,,,,,,,,,,,,,,,,,S4,1,2019_Nov_19_1109,test_final,3.2.4,59.98320608
Practice,9,(4/2) + 5,7,,,,,,,,,,,,,,,,,,,,,,,,,,,,,7,0,7,0,1,0,1,0,0,0,0,8,,,,,,,,,,,,,,,,,,,,,,,,,,7,,,,,,,,,,,,,,,,,,,,,,,,,,,,,,,,,,,,,,,,,,,,1,,,,,,,,,,,,,,,,,,,,,,,,,,583.0280679,None,['7'],0,[1.9867789866402745],583.0280679,None,583.0280679,None,583.0280679,None,585.0832447,None,585.0832447,None,,,,,,,,,,,,,,,,,,,,,S4,1,2019_Nov_19_1109,test_final,3.2.4,59.98320608
,,,,,,,,,,,,,,,,,,,,,,,,,,,,,,,,7,0,7,0,1,0,1,0,,,,,,,,,,,,,,,,,,,,,,,,,,,,,,,,,,,,,,,,,,,,,,,,,,,,,,,,,,,,,,,,,,,,,,,,,,,,,,,,,,,,,,,,,,,,,,,,,,,,,,,,,,,,,,,,,,,586.4080975,None,,,,,,,,,,,,,,,,,,,S4,1,2019_Nov_19_1109,test_final,3.2.4,59.98320608
Practice,8,(3/3) + 5,6,,,,,,,,,,,,,,,,,,,,,,,,,,,,,7,0,7,0,2,0,2,0,0,0,0,7,,,,,,,,,,,,,,,,,,,,,,,,,,6,,,,,,,,,,,,,,,,,,,,,,,,,,,,,,,,,,,,,,,,,,,,1,,,,,,,,,,,,,,,,,,,,,,,,,,587.7237872,None,['6'],0,[1.7171491640619934],587.7237872,None,587.7237872,None,587.7237872,None,589.5293599,None,589.5293599,None,,,,,,,,,,,,,,,,,,,,,S4,1,2019_Nov_19_1109,test_final,3.2.4,59.98320608
,,,,,,,,,,,,,,,,,,,,,,,,,,,,,,,,7,0,7,0,2,0,2,0,,,,,,,,,,,,,,,,,,,,,,,,,,,,,,,,,,,,,,,,,,,,,,,,,,,,,,,,,,,,,,,,,,,,,,,,,,,,,,,,,,,,,,,,,,,,,,,,,,,,,,,,,,,,,,,,,,,590.8529317,None,,,,,,,,,,,,,,,,,,,S4,1,2019_Nov_19_1109,test_final,3.2.4,59.98320608
Practice,8,(3/3) + 5,6,,,,,,,,,,,,,,,,,,,,,,,,,,,,,7,0,7,0,3,0,3,0,0,0,0,7,,,,,,,,,,,,,,,,,,,,,,,,,,6,,,,,,,,,,,,,,,,,,,,,,,,,,,,,,,,,,,,,,,,,,,,1,,,,,,,,,,,,,,,,,,,,,,,,,,592.1521827,None,['6'],0,[2.0541742774657905],592.1521827,None,592.1521827,None,592.1521827,None,594.2870501,None,594.2870501,None,,,,,,,,,,,,,,,,,,,,,S4,1,2019_Nov_19_1109,test_final,3.2.4,59.98320608
,,,,,,,,,,,,,,,,,,,,,,,,,,,,,,,,7,0,7,0,3,0,3,0,,,,,,,,,,,,,,,,,,,,,,,,,,,,,,,,,,,,,,,,,,,,,,,,,,,,,,,,,,,,,,,,,,,,,,,,,,,,,,,,,,,,,,,,,,,,,,,,,,,,,,,,,,,,,,,,,,,595.6142306,None,,,,,,,,,,,,,,,,,,,S4,1,2019_Nov_19_1109,test_final,3.2.4,59.98320608
Practice,4,(4x4) - 14,2,,,,,,,,,,,,,,,,,,,,,,,,,,,,,7,0,7,0,4,0,4,0,0,0,0,3,,,,,,,,,,,,,,,,,,,,,,,,,,2,,,,,,,,,,,,,,,,,,,,,,,,,,,,,,,,,,,,,,,,,,,,1,,,,,,,,,,,,,,,,,,,,,,,,,,596.9301117,None,['2'],0,[1.1899200971238315],596.9301117,None,596.9301117,None,596.9301117,None,598.2060685,None,598.2060685,None,,,,,,,,,,,,,,,,,,,,,S4,1,2019_Nov_19_1109,test_final,3.2.4,59.98320608
,,,,,,,,,,,,,,,,,,,,,,,,,,,,,,,,7,0,7,0,4,0,4,0,,,,,,,,,,,,,,,,,,,,,,,,,,,,,,,,,,,,,,,,,,,,,,,,,,,,,,,,,,,,,,,,,,,,,,,,,,,,,,,,,,,,,,,,,,,,,,,,,,,,,,,,,,,,,,,,,,,599.5107894,None,,,,,,,,,,,,,,,,,,,S4,1,2019_Nov_19_1109,test_final,3.2.4,59.98320608
Practice,1,(1x2) + 1,3,,,,,,,,,,,,,,,,,,,,,,,,,,,,,7,0,7,0,5,0,5,0,0,0,0,0,,,,,,,,,,,,,,,,,,,,,,,,,,3,,,,,,,,,,,,,,,,,,,,,,,,,,,,,,,,,,,,,,,,,,,,1,,,,,,,,,,,,,,,,,,,,,,,,,,600.8426726,None,['3'],0,[1.341683886013925],600.8426726,None,600.8426726,None,600.8426726,None,602.2563415,None,602.2563415,None,,,,,,,,,,,,,,,,,,,,,S4,1,2019_Nov_19_1109,test_final,3.2.4,59.98320608
,,,,,,,,,,,,,,,,,,,,,,,,,,,,,,,,7,0,7,0,5,0,5,0,,,,,,,,,,,,,,,,,,,,,,,,,,,,,,,,,,,,,,,,,,,,,,,,,,,,,,,,,,,,,,,,,,,,,,,,,,,,,,,,,,,,,,,,,,,,,,,,,,,,,,,,,,,,,,,,,,,603.5563446,None,,,,,,,,,,,,,,,,,,,S4,1,2019_Nov_19_1109,test_final,3.2.4,59.98320608
Practice,2,(1/1) - 1,0,,,,,,,,,,,,,,,,,,,,,,,,,,,,,7,0,7,0,6,0,6,0,0,0,0,1,,,,,,,,,,,,,,,,,,,,,,,,,,0,,,,,,,,,,,,,,,,,,,,,,,,,,,,,,,,,,,,,,,,,,,,1,,,,,,,,,,,,,,,,,,,,,,,,,,604.8877737,None,['0'],0,[1.4619956696406007],604.8877737,None,604.8877737,None,604.8877737,None,606.4181806,None,606.4181806,None,,,,,,,,,,,,,,,,,,,,,S4,1,2019_Nov_19_1109,test_final,3.2.4,59.98320608
,,,,,,,,,,,,,,,,,,,,,,,,,,,,,,,,7,0,7,0,6,0,6,0,,,,,,,,,,,,,,,,,,,,,,,,,,,,,,,,,,,,,,,,,,,,,,,,,,,,,,,,,,,,,,,,,,,,,,,,,,,,,,,,,,,,,,,,,,,,,,,,,,,,,,,,,,,,,,,,,,,607.7184278,None,,,,,,,,,,,,,,,,,,,S4,1,2019_Nov_19_1109,test_final,3.2.4,59.98320608
,,,,,,,,,,,,,,,,,,,,,,,,,,,,,,,,7,0,7,0,,,,,,,,,,,,,,,,,,,,,,,,,,,,,,,,,,,,,,,,,,,,,,,,,,,,,,,,,,,,,,,,,,,,,,,,,,,,,,,,,,,,,,,,,,,,,,,,,,,,,,,,,,,,,,,,,,,,,,,,,thrkzln,"['t', 'h', 'r', 'k', 'z', 'l', 'n']",0,"[0.5005486714653671, 0.6313395202159882, 0.8031259472481906, 0.9575646873563528, 1.2721852362155914, 1.4090033639222383, 1.5728724864311516, 1.99939244100824]",609.016579,None,609.016579,None,1,THRKZLN,609.016579,None,,,,,,,S4,1,2019_Nov_19_1109,test_final,3.2.4,59.98320608
Practice,4,(4x4) - 14,2,,,,,,,,,,,,,,,,,,,,,,,,,,,,,8,0,8,0,0,0,0,0,0,0,0,3,,,,,,,,,,,,,,,,,,,,,,,,,,2,,,,,,,,,,,,,,,,,,,,,,,,,,,,,,,,,,,,,,,,,,,,1,,,,,,,,,,,,,,,,,,,,,,,,,,611.580403,None,['2'],0,[1.2287643603049219],611.580403,None,611.580403,None,611.580403,None,612.8833815,None,612.8833815,None,,,,,,,,,,,,,,,,,,,,,S4,1,2019_Nov_19_1109,test_final,3.2.4,59.98320608
,,,,,,,,,,,,,,,,,,,,,,,,,,,,,,,,8,0,8,0,0,0,0,0,,,,,,,,,,,,,,,,,,,,,,,,,,,,,,,,,,,,,,,,,,,,,,,,,,,,,,,,,,,,,,,,,,,,,,,,,,,,,,,,,,,,,,,,,,,,,,,,,,,,,,,,,,,,,,,,,,,614.2102823,None,,,,,,,,,,,,,,,,,,,S4,1,2019_Nov_19_1109,test_final,3.2.4,59.98320608
Practice,11,(5x3) - 7,8,,,,,,,,,,,,,,,,,,,,,,,,,,,,,8,0,8,0,1,0,1,0,0,0,0,10,,,,,,,,,,,,,,,,,,,,,,,,,,8,,,,,,,,,,,,,,,,,,,,,,,,,,,,,,,,,,,,,,,,,,,,1,,,,,,,,,,,,,,,,,,,,,,,,,,615.509313,None,['8'],0,[1.5670754667371511],615.509313,None,615.509313,None,615.509313,None,617.1638275,None,617.1638275,None,,,,,,,,,,,,,,,,,,,,,S4,1,2019_Nov_19_1109,test_final,3.2.4,59.98320608
,,,,,,,,,,,,,,,,,,,,,,,,,,,,,,,,8,0,8,0,1,0,1,0,,,,,,,,,,,,,,,,,,,,,,,,,,,,,,,,,,,,,,,,,,,,,,,,,,,,,,,,,,,,,,,,,,,,,,,,,,,,,,,,,,,,,,,,,,,,,,,,,,,,,,,,,,,,,,,,,,,618.4894691,None,,,,,,,,,,,,,,,,,,,S4,1,2019_Nov_19_1109,test_final,3.2.4,59.98320608
Practice,4,(4x4) - 14,2,,,,,,,,,,,,,,,,,,,,,,,,,,,,,8,0,8,0,2,0,2,0,0,0,0,3,,,,,,,,,,,,,,,,,,,,,,,,,,2,,,,,,,,,,,,,,,,,,,,,,,,,,,,,,,,,,,,,,,,,,,,1,,,,,,,,,,,,,,,,,,,,,,,,,,619.7881006,None,['2'],0,[1.1783391046337783],619.7881006,None,619.7881006,None,619.7881006,None,621.0460331,None,621.0460331,None,,,,,,,,,,,,,,,,,,,,,S4,1,2019_Nov_19_1109,test_final,3.2.4,59.98320608
,,,,,,,,,,,,,,,,,,,,,,,,,,,,,,,,8,0,8,0,2,0,2,0,,,,,,,,,,,,,,,,,,,,,,,,,,,,,,,,,,,,,,,,,,,,,,,,,,,,,,,,,,,,,,,,,,,,,,,,,,,,,,,,,,,,,,,,,,,,,,,,,,,,,,,,,,,,,,,,,,,622.3685558,None,,,,,,,,,,,,,,,,,,,S4,1,2019_Nov_19_1109,test_final,3.2.4,59.98320608
Practice,10,(8/4) + 3,5,,,,,,,,,,,,,,,,,,,,,,,,,,,,,8,0,8,0,3,0,3,0,0,0,0,9,,,,,,,,,,,,,,,,,,,,,,,,,,5,,,,,,,,,,,,,,,,,,,,,,,,,,,,,,,,,,,,,,,,,,,,1,,,,,,,,,,,,,,,,,,,,,,,,,,623.7004161,None,['5'],0,[2.477193452883512],623.7004161,None,623.7004161,None,623.7004161,None,626.2568612,None,626.2568612,None,,,,,,,,,,,,,,,,,,,,,S4,1,2019_Nov_19_1109,test_final,3.2.4,59.98320608
,,,,,,,,,,,,,,,,,,,,,,,,,,,,,,,,8,0,8,0,3,0,3,0,,,,,,,,,,,,,,,,,,,,,,,,,,,,,,,,,,,,,,,,,,,,,,,,,,,,,,,,,,,,,,,,,,,,,,,,,,,,,,,,,,,,,,,,,,,,,,,,,,,,,,,,,,,,,,,,,,,627.579471,None,,,,,,,,,,,,,,,,,,,S4,1,2019_Nov_19_1109,test_final,3.2.4,59.98320608
Practice,9,(4/2) + 5,7,,,,,,,,,,,,,,,,,,,,,,,,,,,,,8,0,8,0,4,0,4,0,0,0,0,8,,,,,,,,,,,,,,,,,,,,,,,,,,7,,,,,,,,,,,,,,,,,,,,,,,,,,,,,,,,,,,,,,,,,,,,1,,,,,,,,,,,,,,,,,,,,,,,,,,628.8946995,None,['7'],0,[2.0159689555875957],628.8946995,None,628.8946995,None,628.8946995,None,631.0007179,None,631.0007179,None,,,,,,,,,,,,,,,,,,,,,S4,1,2019_Nov_19_1109,test_final,3.2.4,59.98320608
,,,,,,,,,,,,,,,,,,,,,,,,,,,,,,,,8,0,8,0,4,0,4,0,,,,,,,,,,,,,,,,,,,,,,,,,,,,,,,,,,,,,,,,,,,,,,,,,,,,,,,,,,,,,,,,,,,,,,,,,,,,,,,,,,,,,,,,,,,,,,,,,,,,,,,,,,,,,,,,,,,632.3074399,None,,,,,,,,,,,,,,,,,,,S4,1,2019_Nov_19_1109,test_final,3.2.4,59.98320608
Practice,2,(1/1) - 1,0,,,,,,,,,,,,,,,,,,,,,,,,,,,,,8,0,8,0,5,0,5,0,0,0,0,1,,,,,,,,,,,,,,,,,,,,,,,,,,0,,,,,,,,,,,,,,,,,,,,,,,,,,,,,,,,,,,,,,,,,,,,1,,,,,,,,,,,,,,,,,,,,,,,,,,633.6231595,None,['0'],0,[1.2277054521255195],633.6231595,None,633.6231595,None,633.6231595,None,634.9290024,None,634.9290024,None,,,,,,,,,,,,,,,,,,,,,S4,1,2019_Nov_19_1109,test_final,3.2.4,59.98320608
,,,,,,,,,,,,,,,,,,,,,,,,,,,,,,,,8,0,8,0,5,0,5,0,,,,,,,,,,,,,,,,,,,,,,,,,,,,,,,,,,,,,,,,,,,,,,,,,,,,,,,,,,,,,,,,,,,,,,,,,,,,,,,,,,,,,,,,,,,,,,,,,,,,,,,,,,,,,,,,,,,636.2537427,None,,,,,,,,,,,,,,,,,,,S4,1,2019_Nov_19_1109,test_final,3.2.4,59.98320608
Practice,12,(8/2) + 4,8,,,,,,,,,,,,,,,,,,,,,,,,,,,,,8,0,8,0,6,0,6,0,0,0,0,11,,,,,,,,,,,,,,,,,,,,,,,,,,8,,,,,,,,,,,,,,,,,,,,,,,,,,,,,,,,,,,,,,,,,,,,1,,,,,,,,,,,,,,,,,,,,,,,,,,637.551134,None,['8'],0,[2.676229045726359],637.551134,None,637.551134,None,637.551134,None,640.3080224,None,640.3080224,None,,,,,,,,,,,,,,,,,,,,,S4,1,2019_Nov_19_1109,test_final,3.2.4,59.98320608
,,,,,,,,,,,,,,,,,,,,,,,,,,,,,,,,8,0,8,0,6,0,6,0,,,,,,,,,,,,,,,,,,,,,,,,,,,,,,,,,,,,,,,,,,,,,,,,,,,,,,,,,,,,,,,,,,,,,,,,,,,,,,,,,,,,,,,,,,,,,,,,,,,,,,,,,,,,,,,,,,,641.631123,None,,,,,,,,,,,,,,,,,,,S4,1,2019_Nov_19_1109,test_final,3.2.4,59.98320608
Practice,3,(7x2) - 5,9,,,,,,,,,,,,,,,,,,,,,,,,,,,,,8,0,8,0,7,0,7,0,0,0,0,2,,,,,,,,,,,,,,,,,,,,,,,,,,,,,,,,,,,,,,,,,,,,,,,,,,,,,,,,,,,,,,,,,,,,,,0,,,,,,,,,,,,,,,,,,,,,,,,,,642.9622721,None,None,0,,642.9622721,None,642.9622721,None,642.9622721,None,647.2380153,None,647.2380153,None,,,,,,,,,,,,,,,,,,,,,S4,1,2019_Nov_19_1109,test_final,3.2.4,59.98320608
Practice,1,(1x2) + 1,3,,,,,,,,,,,,,,,,,,,,,,,,,,,,,8,0,8,0,7,0,7,0,0,1,1,0,,,,,,,,,,,,,,,,,,,,,,,,,,3,,,,,,,,,,,,,,,,,,,,,,,,,,,,,,,,,,,,,,,,,,,,1,,,,,,,,,,,,,,,,,,,,,,,,,,648.5563591,None,['3'],0,[1.8103239135816693],648.5563591,None,648.5563591,None,648.5563591,None,650.4294216,None,650.4294216,None,,,,,,,,,,,,,,,,,,,,,S4,1,2019_Nov_19_1109,test_final,3.2.4,59.98320608
,,,,,,,,,,,,,,,,,,,,,,,,,,,,,,,,8,0,8,0,7,0,7,0,,,,,,,,,,,,,,,,,,,,,,,,,,,,,,,,,,,,,,,,,,,,,,,,,,,,,,,,,,,,,,,,,,,,,,,,,,,,,,,,,,,,,,,,,,,,,,,,,,,,,,,,,,,,,,,,,,,651.7359997,None,,,,,,,,,,,,,,,,,,,S4,1,2019_Nov_19_1109,test_final,3.2.4,59.98320608
,,,,,,,,,,,,,,,,,,,,,,,,,,,,,,,,8,0,8,0,,,,,,,,,,,,,,,,,,,,,,,,,,,,,,,,,,,,,,,,,,,,,,,,,,,,,,,,,,,,,,,,,,,,,,,,,,,,,,,,,,,,,,,,,,,,,,,,,,,,,,,,,,,,,,,,,,,,,,,,,xvjrhlsn,"['x', 'v', 'j', 'r', 'h', 'l', 's', 'n']",0,"[0.7353293793275952, 1.1040004370734096, 1.3620767714455724, 1.6108538964763284, 1.9005973325110972, 2.4580036951228976, 2.7323536463081837, 3.024382038973272, 3.4001399888657033]",653.0181982,None,653.0181982,None,0,XVJRLHSN,653.0181982,None,,,,,,,S4,1,2019_Nov_19_1109,test_final,3.2.4,59.98320608
Practice,9,(4/2) + 5,7,,,,,,,,,,,,,,,,,,,,,,,,,,,,,9,0,9,0,0,0,0,0,0,0,0,8,,,,,,,,,,,,,,,,,,,,,,,,,,7,,,,,,,,,,,,,,,,,,,,,,,,,,,,,,,,,,,,,,,,,,,,1,,,,,,,,,,,,,,,,,,,,,,,,,,656.9638751,None,['7'],0,[1.8819915088824928],656.9638751,None,656.9638751,None,656.9638751,None,658.9109748,None,658.9109748,None,,,,,,,,,,,,,,,,,,,,,S4,1,2019_Nov_19_1109,test_final,3.2.4,59.98320608
,,,,,,,,,,,,,,,,,,,,,,,,,,,,,,,,9,0,9,0,0,0,0,0,,,,,,,,,,,,,,,,,,,,,,,,,,,,,,,,,,,,,,,,,,,,,,,,,,,,,,,,,,,,,,,,,,,,,,,,,,,,,,,,,,,,,,,,,,,,,,,,,,,,,,,,,,,,,,,,,,,660.2273648,None,,,,,,,,,,,,,,,,,,,S4,1,2019_Nov_19_1109,test_final,3.2.4,59.98320608
Practice,5,(3/3) + 2,3,,,,,,,,,,,,,,,,,,,,,,,,,,,,,9,0,9,0,1,0,1,0,0,0,0,4,,,,,,,,,,,,,,,,,,,,,,,,,,3,,,,,,,,,,,,,,,,,,,,,,,,,,,,,,,,,,,,,,,,,,,,1,,,,,,,,,,,,,,,,,,,,,,,,,,661.5416176,None,['3'],0,[1.7754183798097074],661.5416176,None,661.5416176,None,661.5416176,None,663.4025519,None,663.4025519,None,,,,,,,,,,,,,,,,,,,,,S4,1,2019_Nov_19_1109,test_final,3.2.4,59.98320608
,,,,,,,,,,,,,,,,,,,,,,,,,,,,,,,,9,0,9,0,1,0,1,0,,,,,,,,,,,,,,,,,,,,,,,,,,,,,,,,,,,,,,,,,,,,,,,,,,,,,,,,,,,,,,,,,,,,,,,,,,,,,,,,,,,,,,,,,,,,,,,,,,,,,,,,,,,,,,,,,,,664.7219737,None,,,,,,,,,,,,,,,,,,,S4,1,2019_Nov_19_1109,test_final,3.2.4,59.98320608
Practice,1,(1x2) + 1,3,,,,,,,,,,,,,,,,,,,,,,,,,,,,,9,0,9,0,2,0,2,0,0,0,0,0,,,,,,,,,,,,,,,,,,,,,,,,,,3,,,,,,,,,,,,,,,,,,,,,,,,,,,,,,,,,,,,,,,,,,,,1,,,,,,,,,,,,,,,,,,,,,,,,,,666.0376341,None,['3'],0,[1.6098623382858932],666.0376341,None,666.0376341,None,666.0376341,None,667.7343413,None,667.7343413,None,,,,,,,,,,,,,,,,,,,,,S4,1,2019_Nov_19_1109,test_final,3.2.4,59.98320608
,,,,,,,,,,,,,,,,,,,,,,,,,,,,,,,,9,0,9,0,2,0,2,0,,,,,,,,,,,,,,,,,,,,,,,,,,,,,,,,,,,,,,,,,,,,,,,,,,,,,,,,,,,,,,,,,,,,,,,,,,,,,,,,,,,,,,,,,,,,,,,,,,,,,,,,,,,,,,,,,,,669.0505349,None,,,,,,,,,,,,,,,,,,,S4,1,2019_Nov_19_1109,test_final,3.2.4,59.98320608
Practice,13,(3x8) - 19 ,5,,,,,,,,,,,,,,,,,,,,,,,,,,,,,9,0,9,0,3,0,3,0,0,0,0,12,,,,,,,,,,,,,,,,,,,,,,,,,,5,,,,,,,,,,,,,,,,,,,,,,,,,,,,,,,,,,,,,,,,,,,,1,,,,,,,,,,,,,,,,,,,,,,,,,,670.3489555,None,['5'],0,[1.917826188262552],670.3489555,None,670.3489555,None,670.3489555,None,672.3600189,None,672.3600189,None,,,,,,,,,,,,,,,,,,,,,S4,1,2019_Nov_19_1109,test_final,3.2.4,59.98320608
,,,,,,,,,,,,,,,,,,,,,,,,,,,,,,,,9,0,9,0,3,0,3,0,,,,,,,,,,,,,,,,,,,,,,,,,,,,,,,,,,,,,,,,,,,,,,,,,,,,,,,,,,,,,,,,,,,,,,,,,,,,,,,,,,,,,,,,,,,,,,,,,,,,,,,,,,,,,,,,,,,673.6786554,None,,,,,,,,,,,,,,,,,,,S4,1,2019_Nov_19_1109,test_final,3.2.4,59.98320608
Practice,12,(8/2) + 4,8,,,,,,,,,,,,,,,,,,,,,,,,,,,,,9,0,9,0,4,0,4,0,0,0,0,11,,,,,,,,,,,,,,,,,,,,,,,,,,8,,,,,,,,,,,,,,,,,,,,,,,,,,,,,,,,,,,,,,,,,,,,1,,,,,,,,,,,,,,,,,,,,,,,,,,674.9940468,None,['8'],0,[3.789434190839529],674.9940468,None,674.9940468,None,674.9940468,None,678.8836298,None,678.8836298,None,,,,,,,,,,,,,,,,,,,,,S4,1,2019_Nov_19_1109,test_final,3.2.4,59.98320608
,,,,,,,,,,,,,,,,,,,,,,,,,,,,,,,,9,0,9,0,4,0,4,0,,,,,,,,,,,,,,,,,,,,,,,,,,,,,,,,,,,,,,,,,,,,,,,,,,,,,,,,,,,,,,,,,,,,,,,,,,,,,,,,,,,,,,,,,,,,,,,,,,,,,,,,,,,,,,,,,,,680.2053869,None,,,,,,,,,,,,,,,,,,,S4,1,2019_Nov_19_1109,test_final,3.2.4,59.98320608
Practice,10,(8/4) + 3,5,,,,,,,,,,,,,,,,,,,,,,,,,,,,,9,0,9,0,5,0,5,0,0,0,0,9,,,,,,,,,,,,,,,,,,,,,,,,,,5,,,,,,,,,,,,,,,,,,,,,,,,,,,,,,,,,,,,,,,,,,,,1,,,,,,,,,,,,,,,,,,,,,,,,,,681.5199511,None,['5'],0,[3.6436035316437483],681.5199511,None,681.5199511,None,681.5199511,None,685.2527243,None,685.2527243,None,,,,,,,,,,,,,,,,,,,,,S4,1,2019_Nov_19_1109,test_final,3.2.4,59.98320608
,,,,,,,,,,,,,,,,,,,,,,,,,,,,,,,,9,0,9,0,5,0,5,0,,,,,,,,,,,,,,,,,,,,,,,,,,,,,,,,,,,,,,,,,,,,,,,,,,,,,,,,,,,,,,,,,,,,,,,,,,,,,,,,,,,,,,,,,,,,,,,,,,,,,,,,,,,,,,,,,,,686.5641516,None,,,,,,,,,,,,,,,,,,,S4,1,2019_Nov_19_1109,test_final,3.2.4,59.98320608
Practice,1,(1x2) + 1,3,,,,,,,,,,,,,,,,,,,,,,,,,,,,,9,0,9,0,6,0,6,0,0,0,0,0,,,,,,,,,,,,,,,,,,,,,,,,,,3,,,,,,,,,,,,,,,,,,,,,,,,,,,,,,,,,,,,,,,,,,,,1,,,,,,,,,,,,,,,,,,,,,,,,,,687.8797658,None,['3'],0,[2.264622312504798],687.8797658,None,687.8797658,None,687.8797658,None,690.2237755,None,690.2237755,None,,,,,,,,,,,,,,,,,,,,,S4,1,2019_Nov_19_1109,test_final,3.2.4,59.98320608
,,,,,,,,,,,,,,,,,,,,,,,,,,,,,,,,9,0,9,0,6,0,6,0,,,,,,,,,,,,,,,,,,,,,,,,,,,,,,,,,,,,,,,,,,,,,,,,,,,,,,,,,,,,,,,,,,,,,,,,,,,,,,,,,,,,,,,,,,,,,,,,,,,,,,,,,,,,,,,,,,,691.5440753,None,,,,,,,,,,,,,,,,,,,S4,1,2019_Nov_19_1109,test_final,3.2.4,59.98320608
Practice,5,(3/3) + 2,3,,,,,,,,,,,,,,,,,,,,,,,,,,,,,9,0,9,0,7,0,7,0,0,0,0,4,,,,,,,,,,,,,,,,,,,,,,,,,,3,,,,,,,,,,,,,,,,,,,,,,,,,,,,,,,,,,,,,,,,,,,,1,,,,,,,,,,,,,,,,,,,,,,,,,,692.8565132,None,['3'],0,[2.4539806907996535],692.8565132,None,692.8565132,None,692.8565132,None,695.3966202,None,695.3966202,None,,,,,,,,,,,,,,,,,,,,,S4,1,2019_Nov_19_1109,test_final,3.2.4,59.98320608
,,,,,,,,,,,,,,,,,,,,,,,,,,,,,,,,9,0,9,0,7,0,7,0,,,,,,,,,,,,,,,,,,,,,,,,,,,,,,,,,,,,,,,,,,,,,,,,,,,,,,,,,,,,,,,,,,,,,,,,,,,,,,,,,,,,,,,,,,,,,,,,,,,,,,,,,,,,,,,,,,,696.7038065,None,,,,,,,,,,,,,,,,,,,S4,1,2019_Nov_19_1109,test_final,3.2.4,59.98320608
,,,,,,,,,,,,,,,,,,,,,,,,,,,,,,,,9,0,9,0,,,,,,,,,,,,,,,,,,,,,,,,,,,,,,,,,,,,,,,,,,,,,,,,,,,,,,,,,,,,,,,,,,,,,,,,,,,,,,,,,,,,,,,,,,,,,,,,,,,,,,,,,,,,,,,,,,,,,,,,,nzjjvrkx,"['n', 'z', 'j', 'j', 'v', 'r', 'k', 'x']",0,"[1.9420484919101, 2.3442608094774187, 2.964320119470358, 3.9522348851896822, 4.330066926777363, 4.829992877319455, 5.509417335968465, 5.751759910490364, 6.079907543957233]",697.9864701,None,697.9864701,None,0,NJRTXVHS,697.9864701,None,,,,,,,S4,1,2019_Nov_19_1109,test_final,3.2.4,59.98320608
,,,,,,,,,,,,,,,,,,,,,,,,,,,,,,,,,,,,,,,,,,,,,,,,,,,,,,,,,,,,,,,,,,,,,,,,,,,,,,,,,,,,,,,,,,,,,,,,,,,,,,,,,,,,,,,,,,,,,,,,,,,,,,,,,,,,,,,,,,,,,,,,,,,,,,,,,,,,,,,,,,,,,,,,704.5946977,None,space,64.62142429,704.5946977,None,S4,1,2019_Nov_19_1109,test_final,3.2.4,59.98320608
