Task,Trial,Problem,Operation_answer,next_level.thisRepN,next_level.thisTrialN,next_level.thisN,next_level.thisIndex,next_letter.thisRepN,next_letter.thisTrialN,next_letter.thisN,next_letter.thisIndex,repeat_practice.thisRepN,repeat_practice.thisTrialN,repeat_practice.thisN,repeat_practice.thisIndex,trials.thisRepN,trials.thisTrialN,trials.thisN,trials.thisIndex,span_recall_prac.thisRepN,span_recall_prac.thisTrialN,span_recall_prac.thisN,span_recall_prac.thisIndex,span_size_prac.thisRepN,span_size_prac.thisTrialN,span_size_prac.thisN,span_size_prac.thisIndex,repeat_if_wrong_prac.thisRepN,repeat_if_wrong_prac.thisTrialN,repeat_if_wrong_prac.thisN,repeat_if_wrong_prac.thisIndex,span_recall.thisRepN,span_recall.thisTrialN,span_recall.thisN,span_recall.thisIndex,span_size.thisRepN,span_size.thisTrialN,span_size.thisN,span_size.thisIndex,repeat_if_wrong.thisRepN,repeat_if_wrong.thisTrialN,repeat_if_wrong.thisN,repeat_if_wrong.thisIndex,instructions_2.started,instructions_2.stopped,key_resp_4.keys,key_resp_4.rt,key_resp_4.started,key_resp_4.stopped,text_2.started,text_2.stopped,simple_recall,key_resp_5.keys,key_resp_5.rt,key_resp_5.started,key_resp_5.stopped,text_feedback.started,text_feedback.stopped,simple_recall_corr,simple_recall_corrkeys,instructions_3.started,instructions_3.stopped,instructions.started,instructions.stopped,key_resp_2.keys,key_resp_2.rt,key_resp_2.started,key_resp_2.stopped,digit_answer,operation.started,operation.stopped,key_resp.keys,key_resp.corr,key_resp.rt,key_resp.started,key_resp.stopped,operation_feedback.started,operation_feedback.stopped,RT_list,instructions_8.started,instructions_8.stopped,feedback_msg.started,feedback_msg.stopped,processing_score,sumRT,meanRT,sumdiff,sd,RT,feedback_msg_2.started,feedback_msg_2.stopped,key_resp_3.keys,key_resp_3.rt,key_resp_3.started,key_resp_3.stopped,instructions_4.started,instructions_4.stopped,key_resp_6.keys,key_resp_6.rt,key_resp_6.started,key_resp_6.stopped,operation_3.started,operation_3.stopped,key_resp_11.keys,key_resp_11.corr,key_resp_11.rt,key_resp_11.started,key_resp_11.stopped,operation_feedback_2.started,operation_feedback_2.stopped,instructions_9.started,instructions_9.stopped,operation_correct,feedback_msg_4.started,feedback_msg_4.stopped,operation_4.started,operation_4.stopped,text_3.started,text_3.stopped,complex_recall_prac,key_resp_9.keys,key_resp_9.corr,key_resp_9.rt,key_resp_9.started,key_resp_9.stopped,text_feedback_3.started,text_feedback_3.stopped,instructions_6.started,instructions_6.stopped,complex_prac_corr,feedback_msg_3.started,feedback_msg_3.stopped,instructions_7.started,instructions_7.stopped,key_resp_10.keys,key_resp_10.rt,key_resp_10.started,key_resp_10.stopped,operation_2.started,operation_2.stopped,key_resp_7.keys,key_resp_7.corr,key_resp_7.rt,key_resp_7.started,key_resp_7.stopped,operation_feedback_3.started,operation_feedback_3.stopped,instructions_10.started,instructions_10.stopped,feedback_msg_5.started,feedback_msg_5.stopped,operation_5.started,operation_5.stopped,text.started,text.stopped,complex_recall,key_resp_8.keys,key_resp_8.corr,key_resp_8.rt,key_resp_8.started,key_resp_8.stopped,text_feedback_2.started,text_feedback_2.stopped,complex_recall_corr,complex_recall_corrkeys,instructions_5.started,instructions_5.stopped,participant,session,date,expName,psychopyVersion,frameRate
,,,,,,,,,,,,,,,,,,,,,,,,,,,,,,,,,,,,,,,,,,,,10.196673,None,space,51.5990798,10.196673,None,,,,,,,,,,,,,,,,,,,,,,,,,,,,,,,,,,,,,,,,,,,,,,,,,,,,,,,,,,,,,,,,,,,,,,,,,,,,,,,,,,,,,,,,,,,,,,,,,,,,,,,,,,,,,,,,,,,,,,,S5,1,2019_Nov_19_1145,test_final,3.1.5,60.02627951
,,,,0,0,0,0,0,0,0,0,,,,,,,,,,,,,,,,,,,,,,,,,,,,,,,,,,,,,,,62.355445,None,,,,,,,,,,,,,,,,,,,,,,,,,,,,,,,,,,,,,,,,,,,,,,,,,,,,,,,,,,,,,,,,,,,,,,,,,,,,,,,,,,,,,,,,,,,,,,,,,,,,,,,,,,,,,,,,,,,,,S5,1,2019_Nov_19_1145,test_final,3.1.5,60.02627951
,,,,0,0,0,0,1,0,1,0,,,,,,,,,,,,,,,,,,,,,,,,,,,,,,,,,,,,,,,63.6543035,None,,,,,,,,,,,,,,,,,,,,,,,,,,,,,,,,,,,,,,,,,,,,,,,,,,,,,,,,,,,,,,,,,,,,,,,,,,,,,,,,,,,,,,,,,,,,,,,,,,,,,,,,,,,,,,,,,,,,,S5,1,2019_Nov_19_1145,test_final,3.1.5,60.02627951
,,,,1,0,1,0,0,0,0,0,,,,,,,,,,,,,,,,,,,,,,,,,,,,,,,,,,,,,,,67.5506509,None,xj,"['x', 'j']","[1.3567430000039167, 1.5241161000012653, 2.0490681000010227]",64.9506727,None,64.9506727,None,1,XJ,64.9506727,None,,,,,,,,,,,,,,,,,,,,,,,,,,,,,,,,,,,,,,,,,,,,,,,,,,,,,,,,,,,,,,,,,,,,,,,,,,,,,,,,,,,,,,,,,,,,,,,,,,,,,,,,,,S5,1,2019_Nov_19_1145,test_final,3.1.5,60.02627951
,,,,1,0,1,0,1,0,1,0,,,,,,,,,,,,,,,,,,,,,,,,,,,,,,,,,,,,,,,68.849354,None,,,,,,,,,,,,,,,,,,,,,,,,,,,,,,,,,,,,,,,,,,,,,,,,,,,,,,,,,,,,,,,,,,,,,,,,,,,,,,,,,,,,,,,,,,,,,,,,,,,,,,,,,,,,,,,,,,,,,S5,1,2019_Nov_19_1145,test_final,3.1.5,60.02627951
,,,,2,0,2,0,0,0,0,0,,,,,,,,,,,,,,,,,,,,,,,,,,,,,,,,,,,,,,,71.8462982,None,zt,"['z', 't']","[0.51875189999555, 0.8586586999954307, 1.126027799997246]",70.1646159,None,70.1646159,None,1,ZT,70.1646159,None,,,,,,,,,,,,,,,,,,,,,,,,,,,,,,,,,,,,,,,,,,,,,,,,,,,,,,,,,,,,,,,,,,,,,,,,,,,,,,,,,,,,,,,,,,,,,,,,,,,,,,,,,,S5,1,2019_Nov_19_1145,test_final,3.1.5,60.02627951
,,,,2,0,2,0,1,0,1,0,,,,,,,,,,,,,,,,,,,,,,,,,,,,,,,,,,,,,,,73.1617498,None,,,,,,,,,,,,,,,,,,,,,,,,,,,,,,,,,,,,,,,,,,,,,,,,,,,,,,,,,,,,,,,,,,,,,,,,,,,,,,,,,,,,,,,,,,,,,,,,,,,,,,,,,,,,,,,,,,,,,S5,1,2019_Nov_19_1145,test_final,3.1.5,60.02627951
,,,,2,0,2,0,2,0,2,0,,,,,,,,,,,,,,,,,,,,,,,,,,,,,,,,,,,,,,,74.4605773,None,,,,,,,,,,,,,,,,,,,,,,,,,,,,,,,,,,,,,,,,,,,,,,,,,,,,,,,,,,,,,,,,,,,,,,,,,,,,,,,,,,,,,,,,,,,,,,,,,,,,,,,,,,,,,,,,,,,,,S5,1,2019_Nov_19_1145,test_final,3.1.5,60.02627951
,,,,3,0,3,0,0,0,0,0,,,,,,,,,,,,,,,,,,,,,,,,,,,,,,,,,,,,,,,80.3875994,None,qxr,"['q', 'x', 'r']","[0.8397085000033258, 1.1083801999993739, 2.1412211999995634, 2.308262200000172, 2.8057115000046906, 3.0893356000015046, 3.307147100000293, 4.078433599999698]",75.7588095,None,75.7588095,None,1,QXR,75.7588095,None,,,,,,,,,,,,,,,,,,,,,,,,,,,,,,,,,,,,,,,,,,,,,,,,,,,,,,,,,,,,,,,,,,,,,,,,,,,,,,,,,,,,,,,,,,,,,,,,,,,,,,,,,,S5,1,2019_Nov_19_1145,test_final,3.1.5,60.02627951
,,,,3,0,3,0,1,0,1,0,,,,,,,,,,,,,,,,,,,,,,,,,,,,,,,,,,,,,,,81.7034501,None,,,,,,,,,,,,,,,,,,,,,,,,,,,,,,,,,,,,,,,,,,,,,,,,,,,,,,,,,,,,,,,,,,,,,,,,,,,,,,,,,,,,,,,,,,,,,,,,,,,,,,,,,,,,,,,,,,,,,S5,1,2019_Nov_19_1145,test_final,3.1.5,60.02627951
,,,,3,0,3,0,2,0,2,0,,,,,,,,,,,,,,,,,,,,,,,,,,,,,,,,,,,,,,,83.0022946,None,,,,,,,,,,,,,,,,,,,,,,,,,,,,,,,,,,,,,,,,,,,,,,,,,,,,,,,,,,,,,,,,,,,,,,,,,,,,,,,,,,,,,,,,,,,,,,,,,,,,,,,,,,,,,,,,,,,,,S5,1,2019_Nov_19_1145,test_final,3.1.5,60.02627951
,,,,4,0,4,0,0,0,0,0,,,,,,,,,,,,,,,,,,,,,,,,,,,,,,,,,,,,,,,86.3154532,None,sxj,"['s', 'x', 'j']","[0.7501273000016226, 0.9316614999988815, 1.0905892000009771, 1.4451055999961682]",84.3009919,None,84.3009919,None,1,SXJ,84.3009919,None,,,,,,,,,,,,,,,,,,,,,,,,,,,,,,,,,,,,,,,,,,,,,,,,,,,,,,,,,,,,,,,,,,,,,,,,,,,,,,,,,,,,,,,,,,,,,,,,,,,,,,,,,,S5,1,2019_Nov_19_1145,test_final,3.1.5,60.02627951
,,,,4,0,4,0,1,0,1,0,,,,,,,,,,,,,,,,,,,,,,,,,,,,,,,,,,,,,,,87.6142831,87.1058987,,,,,,,,,,,,,,,,,,,,,,,,,,,,,,,,,,,,,,,,,,,,,,,,,,,,,,,,,,,,,,,,,,,,,,,,,,,,,,,,,,,,,,,,,,,,,,,,,,,,,,,,,,,,,,,,,,,,,S5,1,2019_Nov_19_1145,test_final,3.1.5,60.02627951
,,,,4,0,4,0,2,0,2,0,,,,,,,,,,,,,,,,,,,,,,,,,,,,,,,,,,,,,,,88.9127597,88.4049859,,,,,,,,,,,,,,,,,,,,,,,,,,,,,,,,,,,,,,,,,,,,,,,,,,,,,,,,,,,,,,,,,,,,,,,,,,,,,,,,,,,,,,,,,,,,,,,,,,,,,,,,,,,,,,,,,,,,,S5,1,2019_Nov_19_1145,test_final,3.1.5,60.02627951
,,,,4,0,4,0,3,0,3,0,,,,,,,,,,,,,,,,,,,,,,,,,,,,,,,,,,,,,,,90.2115939,89.6934223,,,,,,,,,,,,,,,,,,,,,,,,,,,,,,,,,,,,,,,,,,,,,,,,,,,,,,,,,,,,,,,,,,,,,,,,,,,,,,,,,,,,,,,,,,,,,,,,,,,,,,,,,,,,,,,,,,,,,S5,1,2019_Nov_19_1145,test_final,3.1.5,60.02627951
,,,,5,0,5,0,0,0,0,0,,,,,,,,,,,,,,,,,,,,,,,,,,,,,,,,,,,,,,,94.4071809,None,nhvt,"['n', 'h', 'v', 't']","[0.4276099999988219, 0.7176307999980054, 0.9187584999963292, 1.7127389000015683, 1.8909282000022358, 2.08712309999828, 2.343460199997935]",91.5096269,None,91.5096269,None,1,NHVT,91.5096269,None,,,,,,,,,,,,,,,,,,,,,,,,,,,,,,,,,,,,,,,,,,,,,,,,,,,,,,,,,,,,,,,,,,,,,,,,,,,,,,,,,,,,,,,,,,,,,,,,,,,,,,,,,,S5,1,2019_Nov_19_1145,test_final,3.1.5,60.02627951
,,,,5,0,5,0,1,0,1,0,,,,,,,,,,,,,,,,,,,,,,,,,,,,,,,,,,,,,,,95.7229774,None,,,,,,,,,,,,,,,,,,,,,,,,,,,,,,,,,,,,,,,,,,,,,,,,,,,,,,,,,,,,,,,,,,,,,,,,,,,,,,,,,,,,,,,,,,,,,,,,,,,,,,,,,,,,,,,,,,,,,S5,1,2019_Nov_19_1145,test_final,3.1.5,60.02627951
,,,,5,0,5,0,2,0,2,0,,,,,,,,,,,,,,,,,,,,,,,,,,,,,,,,,,,,,,,97.0215562,None,,,,,,,,,,,,,,,,,,,,,,,,,,,,,,,,,,,,,,,,,,,,,,,,,,,,,,,,,,,,,,,,,,,,,,,,,,,,,,,,,,,,,,,,,,,,,,,,,,,,,,,,,,,,,,,,,,,,,S5,1,2019_Nov_19_1145,test_final,3.1.5,60.02627951
,,,,5,0,5,0,3,0,3,0,,,,,,,,,,,,,,,,,,,,,,,,,,,,,,,,,,,,,,,98.3200644,None,,,,,,,,,,,,,,,,,,,,,,,,,,,,,,,,,,,,,,,,,,,,,,,,,,,,,,,,,,,,,,,,,,,,,,,,,,,,,,,,,,,,,,,,,,,,,,,,,,,,,,,,,,,,,,,,,,,,,S5,1,2019_Nov_19_1145,test_final,3.1.5,60.02627951
,,,,6,0,6,0,0,0,0,0,,,,,,,,,,,,,,,,,,,,,,,,,,,,,,,,,,,,,,,102.0159136,None,xnzs,"['x', 'n', 'z', 's']","[0.7452533000032417, 0.9857789000016055, 1.2164910999999847, 1.5144500000023982, 1.8484538000047905]",99.6189081,None,99.6189081,None,1,XNZS,99.6189081,None,,,,,,,,,,,,,,,,,,,,,,,,,,,,,,,,,,,,,,,,,,,,,,,,,,,,,,,,,,,,,,,,,,,,,,,,,,,,,,,,,,,,,,,,,,,,,,,,,,,,,,,,,,S5,1,2019_Nov_19_1145,test_final,3.1.5,60.02627951
,,,,6,0,6,0,1,0,1,0,,,,,,,,,,,,,,,,,,,,,,,,,,,,,,,,,,,,,,,103.3321467,None,,,,,,,,,,,,,,,,,,,,,,,,,,,,,,,,,,,,,,,,,,,,,,,,,,,,,,,,,,,,,,,,,,,,,,,,,,,,,,,,,,,,,,,,,,,,,,,,,,,,,,,,,,,,,,,,,,,,,S5,1,2019_Nov_19_1145,test_final,3.1.5,60.02627951
,,,,6,0,6,0,2,0,2,0,,,,,,,,,,,,,,,,,,,,,,,,,,,,,,,,,,,,,,,104.630727,None,,,,,,,,,,,,,,,,,,,,,,,,,,,,,,,,,,,,,,,,,,,,,,,,,,,,,,,,,,,,,,,,,,,,,,,,,,,,,,,,,,,,,,,,,,,,,,,,,,,,,,,,,,,,,,,,,,,,,S5,1,2019_Nov_19_1145,test_final,3.1.5,60.02627951
,,,,6,0,6,0,3,0,3,0,,,,,,,,,,,,,,,,,,,,,,,,,,,,,,,,,,,,,,,105.9293008,None,,,,,,,,,,,,,,,,,,,,,,,,,,,,,,,,,,,,,,,,,,,,,,,,,,,,,,,,,,,,,,,,,,,,,,,,,,,,,,,,,,,,,,,,,,,,,,,,,,,,,,,,,,,,,,,,,,,,,S5,1,2019_Nov_19_1145,test_final,3.1.5,60.02627951
,,,,6,0,6,0,4,0,4,0,,,,,,,,,,,,,,,,,,,,,,,,,,,,,,,,,,,,,,,107.2280739,None,,,,,,,,,,,,,,,,,,,,,,,,,,,,,,,,,,,,,,,,,,,,,,,,,,,,,,,,,,,,,,,,,,,,,,,,,,,,,,,,,,,,,,,,,,,,,,,,,,,,,,,,,,,,,,,,,,,,,S5,1,2019_Nov_19_1145,test_final,3.1.5,60.02627951
,,,,7,0,7,0,0,0,0,0,,,,,,,,,,,,,,,,,,,,,,,,,,,,,,,,,,,,,,,111.5901823,None,zqjrh,"['z', 'q', 'j', 'r', 'h']","[0.9065336999992724, 1.3353544999990845, 1.719126199997845, 1.9104743999996572, 2.073994499995024, 2.5280208999975002]",108.5099583,None,108.5099583,None,1,ZQJRH,108.5099583,None,,,,,,,,,,,,,,,,,,,,,,,,,,,,,,,,,,,,,,,,,,,,,,,,,,,,,,,,,,,,,,,,,,,,,,,,,,,,,,,,,,,,,,,,,,,,,,,,,,,,,,,,,,S5,1,2019_Nov_19_1145,test_final,3.1.5,60.02627951
,,,,7,0,7,0,1,0,1,0,,,,,,,,,,,,,,,,,,,,,,,,,,,,,,,,,,,,,,,112.9062344,None,,,,,,,,,,,,,,,,,,,,,,,,,,,,,,,,,,,,,,,,,,,,,,,,,,,,,,,,,,,,,,,,,,,,,,,,,,,,,,,,,,,,,,,,,,,,,,,,,,,,,,,,,,,,,,,,,,,,,S5,1,2019_Nov_19_1145,test_final,3.1.5,60.02627951
,,,,7,0,7,0,2,0,2,0,,,,,,,,,,,,,,,,,,,,,,,,,,,,,,,,,,,,,,,114.2044403,None,,,,,,,,,,,,,,,,,,,,,,,,,,,,,,,,,,,,,,,,,,,,,,,,,,,,,,,,,,,,,,,,,,,,,,,,,,,,,,,,,,,,,,,,,,,,,,,,,,,,,,,,,,,,,,,,,,,,,S5,1,2019_Nov_19_1145,test_final,3.1.5,60.02627951
,,,,7,0,7,0,3,0,3,0,,,,,,,,,,,,,,,,,,,,,,,,,,,,,,,,,,,,,,,115.5030934,None,,,,,,,,,,,,,,,,,,,,,,,,,,,,,,,,,,,,,,,,,,,,,,,,,,,,,,,,,,,,,,,,,,,,,,,,,,,,,,,,,,,,,,,,,,,,,,,,,,,,,,,,,,,,,,,,,,,,,S5,1,2019_Nov_19_1145,test_final,3.1.5,60.02627951
,,,,7,0,7,0,4,0,4,0,,,,,,,,,,,,,,,,,,,,,,,,,,,,,,,,,,,,,,,116.8017098,None,,,,,,,,,,,,,,,,,,,,,,,,,,,,,,,,,,,,,,,,,,,,,,,,,,,,,,,,,,,,,,,,,,,,,,,,,,,,,,,,,,,,,,,,,,,,,,,,,,,,,,,,,,,,,,,,,,,,,S5,1,2019_Nov_19_1145,test_final,3.1.5,60.02627951
,,,,8,0,8,0,0,0,0,0,,,,,,,,,,,,,,,,,,,,,,,,,,,,,,,,,,,,,,,121.0981122,None,zrlqv,"['z', 'r', 'l', 'q', 'v']","[0.8209933000034653, 1.0997898999994504, 1.3483425000013085, 1.6620881999988342, 2.069321499999205, 2.4436318000007304]",118.100694,None,118.100694,None,1,ZRLQV,118.100694,None,,,,,,,,,,,,,,,,,,,,,,,,,,,,,,,,,,,,,,,,,,,,,,,,,,,,,,,,,,,,,,,,,,,,,,,,,,,,,,,,,,,,,,,,,,,,,,,,,,,,,,,,,,S5,1,2019_Nov_19_1145,test_final,3.1.5,60.02627951
,,,,8,0,8,0,1,0,1,0,,,,,,,,,,,,,,,,,,,,,,,,,,,,,,,,,,,,,,,122.4132068,None,,,,,,,,,,,,,,,,,,,,,,,,,,,,,,,,,,,,,,,,,,,,,,,,,,,,,,,,,,,,,,,,,,,,,,,,,,,,,,,,,,,,,,,,,,,,,,,,,,,,,,,,,,,,,,,,,,,,,S5,1,2019_Nov_19_1145,test_final,3.1.5,60.02627951
,,,,8,0,8,0,2,0,2,0,,,,,,,,,,,,,,,,,,,,,,,,,,,,,,,,,,,,,,,123.7117294,None,,,,,,,,,,,,,,,,,,,,,,,,,,,,,,,,,,,,,,,,,,,,,,,,,,,,,,,,,,,,,,,,,,,,,,,,,,,,,,,,,,,,,,,,,,,,,,,,,,,,,,,,,,,,,,,,,,,,,S5,1,2019_Nov_19_1145,test_final,3.1.5,60.02627951
,,,,8,0,8,0,3,0,3,0,,,,,,,,,,,,,,,,,,,,,,,,,,,,,,,,,,,,,,,125.0098938,None,,,,,,,,,,,,,,,,,,,,,,,,,,,,,,,,,,,,,,,,,,,,,,,,,,,,,,,,,,,,,,,,,,,,,,,,,,,,,,,,,,,,,,,,,,,,,,,,,,,,,,,,,,,,,,,,,,,,,S5,1,2019_Nov_19_1145,test_final,3.1.5,60.02627951
,,,,8,0,8,0,4,0,4,0,,,,,,,,,,,,,,,,,,,,,,,,,,,,,,,,,,,,,,,126.3095386,None,,,,,,,,,,,,,,,,,,,,,,,,,,,,,,,,,,,,,,,,,,,,,,,,,,,,,,,,,,,,,,,,,,,,,,,,,,,,,,,,,,,,,,,,,,,,,,,,,,,,,,,,,,,,,,,,,,,,,S5,1,2019_Nov_19_1145,test_final,3.1.5,60.02627951
,,,,8,0,8,0,5,0,5,0,,,,,,,,,,,,,,,,,,,,,,,,,,,,,,,,,,,,,,,127.6084952,None,,,,,,,,,,,,,,,,,,,,,,,,,,,,,,,,,,,,,,,,,,,,,,,,,,,,,,,,,,,,,,,,,,,,,,,,,,,,,,,,,,,,,,,,,,,,,,,,,,,,,,,,,,,,,,,,,,,,,S5,1,2019_Nov_19_1145,test_final,3.1.5,60.02627951
,,,,9,0,9,0,0,0,0,0,,,,,,,,,,,,,,,,,,,,,,,,,,,,,,,,,,,,,,,132.670021,None,qlxkrn,"['q', 'l', 'x', 'k', 'r', 'n']","[0.8374057999972138, 1.0719506999957957, 1.4391927999968175, 2.078637400001753, 2.362603499997931, 2.8234112999998615, 3.2035300999996252]",128.9068532,None,128.9068532,None,1,QLXKRN,128.9068532,None,,,,,,,,,,,,,,,,,,,,,,,,,,,,,,,,,,,,,,,,,,,,,,,,,,,,,,,,,,,,,,,,,,,,,,,,,,,,,,,,,,,,,,,,,,,,,,,,,,,,,,,,,,S5,1,2019_Nov_19_1145,test_final,3.1.5,60.02627951
,,,,9,0,9,0,1,0,1,0,,,,,,,,,,,,,,,,,,,,,,,,,,,,,,,,,,,,,,,133.9854954,None,,,,,,,,,,,,,,,,,,,,,,,,,,,,,,,,,,,,,,,,,,,,,,,,,,,,,,,,,,,,,,,,,,,,,,,,,,,,,,,,,,,,,,,,,,,,,,,,,,,,,,,,,,,,,,,,,,,,,S5,1,2019_Nov_19_1145,test_final,3.1.5,60.02627951
,,,,9,0,9,0,2,0,2,0,,,,,,,,,,,,,,,,,,,,,,,,,,,,,,,,,,,,,,,135.2843276,None,,,,,,,,,,,,,,,,,,,,,,,,,,,,,,,,,,,,,,,,,,,,,,,,,,,,,,,,,,,,,,,,,,,,,,,,,,,,,,,,,,,,,,,,,,,,,,,,,,,,,,,,,,,,,,,,,,,,,S5,1,2019_Nov_19_1145,test_final,3.1.5,60.02627951
,,,,9,0,9,0,3,0,3,0,,,,,,,,,,,,,,,,,,,,,,,,,,,,,,,,,,,,,,,136.5819663,None,,,,,,,,,,,,,,,,,,,,,,,,,,,,,,,,,,,,,,,,,,,,,,,,,,,,,,,,,,,,,,,,,,,,,,,,,,,,,,,,,,,,,,,,,,,,,,,,,,,,,,,,,,,,,,,,,,,,,S5,1,2019_Nov_19_1145,test_final,3.1.5,60.02627951
,,,,9,0,9,0,4,0,4,0,,,,,,,,,,,,,,,,,,,,,,,,,,,,,,,,,,,,,,,137.8811421,None,,,,,,,,,,,,,,,,,,,,,,,,,,,,,,,,,,,,,,,,,,,,,,,,,,,,,,,,,,,,,,,,,,,,,,,,,,,,,,,,,,,,,,,,,,,,,,,,,,,,,,,,,,,,,,,,,,,,,S5,1,2019_Nov_19_1145,test_final,3.1.5,60.02627951
,,,,9,0,9,0,5,0,5,0,,,,,,,,,,,,,,,,,,,,,,,,,,,,,,,,,,,,,,,139.1803022,None,,,,,,,,,,,,,,,,,,,,,,,,,,,,,,,,,,,,,,,,,,,,,,,,,,,,,,,,,,,,,,,,,,,,,,,,,,,,,,,,,,,,,,,,,,,,,,,,,,,,,,,,,,,,,,,,,,,,,S5,1,2019_Nov_19_1145,test_final,3.1.5,60.02627951
,,,,10,0,10,0,0,0,0,0,,,,,,,,,,,,,,,,,,,,,,,,,,,,,,,,,,,,,,,143.4090574,None,zjnrks,"['z', 'j', 'n', 'r', 'k', 's']","[0.8133203000033973, 1.0278889000037452, 1.4280297000004794, 1.641493700000865, 1.8290778000009595, 2.0274930000014137, 2.3967095999978483]",140.461877,None,140.461877,None,1,ZJNRKS,140.461877,None,,,,,,,,,,,,,,,,,,,,,,,,,,,,,,,,,,,,,,,,,,,,,,,,,,,,,,,,,,,,,,,,,,,,,,,,,,,,,,,,,,,,,,,,,,,,,,,,,,,,,,,,,,S5,1,2019_Nov_19_1145,test_final,3.1.5,60.02627951
,,,,10,0,10,0,1,0,1,0,,,,,,,,,,,,,,,,,,,,,,,,,,,,,,,,,,,,,,,144.7249313,None,,,,,,,,,,,,,,,,,,,,,,,,,,,,,,,,,,,,,,,,,,,,,,,,,,,,,,,,,,,,,,,,,,,,,,,,,,,,,,,,,,,,,,,,,,,,,,,,,,,,,,,,,,,,,,,,,,,,,S5,1,2019_Nov_19_1145,test_final,3.1.5,60.02627951
,,,,10,0,10,0,2,0,2,0,,,,,,,,,,,,,,,,,,,,,,,,,,,,,,,,,,,,,,,146.0237006,None,,,,,,,,,,,,,,,,,,,,,,,,,,,,,,,,,,,,,,,,,,,,,,,,,,,,,,,,,,,,,,,,,,,,,,,,,,,,,,,,,,,,,,,,,,,,,,,,,,,,,,,,,,,,,,,,,,,,,S5,1,2019_Nov_19_1145,test_final,3.1.5,60.02627951
,,,,10,0,10,0,3,0,3,0,,,,,,,,,,,,,,,,,,,,,,,,,,,,,,,,,,,,,,,147.3220832,None,,,,,,,,,,,,,,,,,,,,,,,,,,,,,,,,,,,,,,,,,,,,,,,,,,,,,,,,,,,,,,,,,,,,,,,,,,,,,,,,,,,,,,,,,,,,,,,,,,,,,,,,,,,,,,,,,,,,,S5,1,2019_Nov_19_1145,test_final,3.1.5,60.02627951
,,,,10,0,10,0,4,0,4,0,,,,,,,,,,,,,,,,,,,,,,,,,,,,,,,,,,,,,,,148.6209544,None,,,,,,,,,,,,,,,,,,,,,,,,,,,,,,,,,,,,,,,,,,,,,,,,,,,,,,,,,,,,,,,,,,,,,,,,,,,,,,,,,,,,,,,,,,,,,,,,,,,,,,,,,,,,,,,,,,,,,S5,1,2019_Nov_19_1145,test_final,3.1.5,60.02627951
,,,,10,0,10,0,5,0,5,0,,,,,,,,,,,,,,,,,,,,,,,,,,,,,,,,,,,,,,,149.9174449,None,,,,,,,,,,,,,,,,,,,,,,,,,,,,,,,,,,,,,,,,,,,,,,,,,,,,,,,,,,,,,,,,,,,,,,,,,,,,,,,,,,,,,,,,,,,,,,,,,,,,,,,,,,,,,,,,,,,,,S5,1,2019_Nov_19_1145,test_final,3.1.5,60.02627951
,,,,10,0,10,0,6,0,6,0,,,,,,,,,,,,,,,,,,,,,,,,,,,,,,,,,,,,,,,151.2186742,None,,,,,,,,,,,,,,,,,,,,,,,,,,,,,,,,,,,,,,,,,,,,,,,,,,,,,,,,,,,,,,,,,,,,,,,,,,,,,,,,,,,,,,,,,,,,,,,,,,,,,,,,,,,,,,,,,,,,,S5,1,2019_Nov_19_1145,test_final,3.1.5,60.02627951
,,,,11,0,11,0,0,0,0,0,,,,,,,,,,,,,,,,,,,,,,,,,,,,,,,,,,,,,,,155.8137986,None,qhxrz,"['q', 'h', 'x', 'r', 'z']","[0.8402003000010154, 1.5258781000011368, 1.9060417000000598, 2.1855546000006143, 2.499582399999781, 2.738795900004334]",152.5171844,None,152.5171844,None,0,QHSXNRZ,152.5171844,None,,,,,,,,,,,,,,,,,,,,,,,,,,,,,,,,,,,,,,,,,,,,,,,,,,,,,,,,,,,,,,,,,,,,,,,,,,,,,,,,,,,,,,,,,,,,,,,,,,,,,,,,,,S5,1,2019_Nov_19_1145,test_final,3.1.5,60.02627951
,,,,11,0,11,0,1,0,1,0,,,,,,,,,,,,,,,,,,,,,,,,,,,,,,,,,,,,,,,157.112653,156.5975885,,,,,,,,,,,,,,,,,,,,,,,,,,,,,,,,,,,,,,,,,,,,,,,,,,,,,,,,,,,,,,,,,,,,,,,,,,,,,,,,,,,,,,,,,,,,,,,,,,,,,,,,,,,,,,,,,,,,,S5,1,2019_Nov_19_1145,test_final,3.1.5,60.02627951
,,,,11,0,11,0,2,0,2,0,,,,,,,,,,,,,,,,,,,,,,,,,,,,,,,,,,,,,,,158.4112729,157.8931099,,,,,,,,,,,,,,,,,,,,,,,,,,,,,,,,,,,,,,,,,,,,,,,,,,,,,,,,,,,,,,,,,,,,,,,,,,,,,,,,,,,,,,,,,,,,,,,,,,,,,,,,,,,,,,,,,,,,,S5,1,2019_Nov_19_1145,test_final,3.1.5,60.02627951
,,,,11,0,11,0,3,0,3,0,,,,,,,,,,,,,,,,,,,,,,,,,,,,,,,,,,,,,,,159.7103744,159.1926577,,,,,,,,,,,,,,,,,,,,,,,,,,,,,,,,,,,,,,,,,,,,,,,,,,,,,,,,,,,,,,,,,,,,,,,,,,,,,,,,,,,,,,,,,,,,,,,,,,,,,,,,,,,,,,,,,,,,,S5,1,2019_Nov_19_1145,test_final,3.1.5,60.02627951
,,,,11,0,11,0,4,0,4,0,,,,,,,,,,,,,,,,,,,,,,,,,,,,,,,,,,,,,,,161.0088428,160.495475,,,,,,,,,,,,,,,,,,,,,,,,,,,,,,,,,,,,,,,,,,,,,,,,,,,,,,,,,,,,,,,,,,,,,,,,,,,,,,,,,,,,,,,,,,,,,,,,,,,,,,,,,,,,,,,,,,,,,S5,1,2019_Nov_19_1145,test_final,3.1.5,60.02627951
,,,,11,0,11,0,5,0,5,0,,,,,,,,,,,,,,,,,,,,,,,,,,,,,,,,,,,,,,,162.3077208,161.7931896,,,,,,,,,,,,,,,,,,,,,,,,,,,,,,,,,,,,,,,,,,,,,,,,,,,,,,,,,,,,,,,,,,,,,,,,,,,,,,,,,,,,,,,,,,,,,,,,,,,,,,,,,,,,,,,,,,,,,S5,1,2019_Nov_19_1145,test_final,3.1.5,60.02627951
,,,,11,0,11,0,6,0,6,0,,,,,,,,,,,,,,,,,,,,,,,,,,,,,,,,,,,,,,,163.6062307,163.0909193,,,,,,,,,,,,,,,,,,,,,,,,,,,,,,,,,,,,,,,,,,,,,,,,,,,,,,,,,,,,,,,,,,,,,,,,,,,,,,,,,,,,,,,,,,,,,,,,,,,,,,,,,,,,,,,,,,,,,S5,1,2019_Nov_19_1145,test_final,3.1.5,60.02627951
,,,,12,0,12,0,0,0,0,0,,,,,,,,,,,,,,,,,,,,,,,,,,,,,,,,,,,,,,,169.4172236,None,jnvkhz,"['j', 'n', 'v', 'k', 'h', 'z']","[0.796558100002585, 1.0278929999985849, 1.4068224000002374, 2.5330398000005516, 2.8462085999999545, 3.6769811999984086, 3.952591300003405]",164.9052703,None,164.9052703,None,0,JNVKHZX,164.9052703,None,,,,,,,,,,,,,,,,,,,,,,,,,,,,,,,,,,,,,,,,,,,,,,,,,,,,,,,,,,,,,,,,,,,,,,,,,,,,,,,,,,,,,,,,,,,,,,,,,,,,,,,,,,S5,1,2019_Nov_19_1145,test_final,3.1.5,60.02627951
,,,,12,0,12,0,1,0,1,0,,,,,,,,,,,,,,,,,,,,,,,,,,,,,,,,,,,,,,,170.7158724,170.2023272,,,,,,,,,,,,,,,,,,,,,,,,,,,,,,,,,,,,,,,,,,,,,,,,,,,,,,,,,,,,,,,,,,,,,,,,,,,,,,,,,,,,,,,,,,,,,,,,,,,,,,,,,,,,,,,,,,,,,S5,1,2019_Nov_19_1145,test_final,3.1.5,60.02627951
,,,,12,0,12,0,2,0,2,0,,,,,,,,,,,,,,,,,,,,,,,,,,,,,,,,,,,,,,,172.0146552,171.5011332,,,,,,,,,,,,,,,,,,,,,,,,,,,,,,,,,,,,,,,,,,,,,,,,,,,,,,,,,,,,,,,,,,,,,,,,,,,,,,,,,,,,,,,,,,,,,,,,,,,,,,,,,,,,,,,,,,,,,S5,1,2019_Nov_19_1145,test_final,3.1.5,60.02627951
,,,,12,0,12,0,3,0,3,0,,,,,,,,,,,,,,,,,,,,,,,,,,,,,,,,,,,,,,,173.3135348,172.7985234,,,,,,,,,,,,,,,,,,,,,,,,,,,,,,,,,,,,,,,,,,,,,,,,,,,,,,,,,,,,,,,,,,,,,,,,,,,,,,,,,,,,,,,,,,,,,,,,,,,,,,,,,,,,,,,,,,,,,S5,1,2019_Nov_19_1145,test_final,3.1.5,60.02627951
,,,,12,0,12,0,4,0,4,0,,,,,,,,,,,,,,,,,,,,,,,,,,,,,,,,,,,,,,,174.6122727,174.0979888,,,,,,,,,,,,,,,,,,,,,,,,,,,,,,,,,,,,,,,,,,,,,,,,,,,,,,,,,,,,,,,,,,,,,,,,,,,,,,,,,,,,,,,,,,,,,,,,,,,,,,,,,,,,,,,,,,,,,S5,1,2019_Nov_19_1145,test_final,3.1.5,60.02627951
,,,,12,0,12,0,5,0,5,0,,,,,,,,,,,,,,,,,,,,,,,,,,,,,,,,,,,,,,,175.9108735,175.3984064,,,,,,,,,,,,,,,,,,,,,,,,,,,,,,,,,,,,,,,,,,,,,,,,,,,,,,,,,,,,,,,,,,,,,,,,,,,,,,,,,,,,,,,,,,,,,,,,,,,,,,,,,,,,,,,,,,,,,S5,1,2019_Nov_19_1145,test_final,3.1.5,60.02627951
,,,,12,0,12,0,6,0,6,0,,,,,,,,,,,,,,,,,,,,,,,,,,,,,,,,,,,,,,,177.2095481,176.6950055,,,,,,,,,,,,,,,,,,,,,,,,,,,,,,,,,,,,,,,,,,,,,,,,,,,,,,,,,,,,,,,,,,,,,,,,,,,,,,,,,,,,,,,,,,,,,,,,,,,,,,,,,,,,,,,,,,,,,S5,1,2019_Nov_19_1145,test_final,3.1.5,60.02627951
,,,,13,0,13,0,0,0,0,0,,,,,,,,,,,,,,,,,,,,,,,,,,,,,,,,,,,,,,,183.2869719,None,kzqvjhr,"['k', 'z', 'q', 'v', 'j', 'h', 'r']","[1.4384184000009554, 2.0864677999998094, 2.5213358999972115, 2.6571060999995098, 3.0624084000010043, 3.2824465000012424, 3.9503398000015295, 4.223378800001228]",178.508225,None,178.508225,None,1,KZQVJHR,178.508225,None,,,,,,,,,,,,,,,,,,,,,,,,,,,,,,,,,,,,,,,,,,,,,,,,,,,,,,,,,,,,,,,,,,,,,,,,,,,,,,,,,,,,,,,,,,,,,,,,,,,,,,,,,,S5,1,2019_Nov_19_1145,test_final,3.1.5,60.02627951
,,,,13,0,13,0,1,0,1,0,,,,,,,,,,,,,,,,,,,,,,,,,,,,,,,,,,,,,,,184.6023162,None,,,,,,,,,,,,,,,,,,,,,,,,,,,,,,,,,,,,,,,,,,,,,,,,,,,,,,,,,,,,,,,,,,,,,,,,,,,,,,,,,,,,,,,,,,,,,,,,,,,,,,,,,,,,,,,,,,,,,S5,1,2019_Nov_19_1145,test_final,3.1.5,60.02627951
,,,,13,0,13,0,2,0,2,0,,,,,,,,,,,,,,,,,,,,,,,,,,,,,,,,,,,,,,,185.9012192,None,,,,,,,,,,,,,,,,,,,,,,,,,,,,,,,,,,,,,,,,,,,,,,,,,,,,,,,,,,,,,,,,,,,,,,,,,,,,,,,,,,,,,,,,,,,,,,,,,,,,,,,,,,,,,,,,,,,,,S5,1,2019_Nov_19_1145,test_final,3.1.5,60.02627951
,,,,13,0,13,0,3,0,3,0,,,,,,,,,,,,,,,,,,,,,,,,,,,,,,,,,,,,,,,187.1997644,None,,,,,,,,,,,,,,,,,,,,,,,,,,,,,,,,,,,,,,,,,,,,,,,,,,,,,,,,,,,,,,,,,,,,,,,,,,,,,,,,,,,,,,,,,,,,,,,,,,,,,,,,,,,,,,,,,,,,,S5,1,2019_Nov_19_1145,test_final,3.1.5,60.02627951
,,,,13,0,13,0,4,0,4,0,,,,,,,,,,,,,,,,,,,,,,,,,,,,,,,,,,,,,,,188.4986398,None,,,,,,,,,,,,,,,,,,,,,,,,,,,,,,,,,,,,,,,,,,,,,,,,,,,,,,,,,,,,,,,,,,,,,,,,,,,,,,,,,,,,,,,,,,,,,,,,,,,,,,,,,,,,,,,,,,,,,S5,1,2019_Nov_19_1145,test_final,3.1.5,60.02627951
,,,,13,0,13,0,5,0,5,0,,,,,,,,,,,,,,,,,,,,,,,,,,,,,,,,,,,,,,,189.78062,None,,,,,,,,,,,,,,,,,,,,,,,,,,,,,,,,,,,,,,,,,,,,,,,,,,,,,,,,,,,,,,,,,,,,,,,,,,,,,,,,,,,,,,,,,,,,,,,,,,,,,,,,,,,,,,,,,,,,,S5,1,2019_Nov_19_1145,test_final,3.1.5,60.02627951
,,,,13,0,13,0,6,0,6,0,,,,,,,,,,,,,,,,,,,,,,,,,,,,,,,,,,,,,,,191.0940999,None,,,,,,,,,,,,,,,,,,,,,,,,,,,,,,,,,,,,,,,,,,,,,,,,,,,,,,,,,,,,,,,,,,,,,,,,,,,,,,,,,,,,,,,,,,,,,,,,,,,,,,,,,,,,,,,,,,,,,S5,1,2019_Nov_19_1145,test_final,3.1.5,60.02627951
,,,,,,,,,,,,,,,,,,,,,,,,,,,,,,,,,,,,,,,,,,,,,,,,,,,,ntrzhlkr,"['n', 't', 'r', 'z', 'h', 'l', 'k', 'r']","[1.0528948999999557, 1.328965499997139, 1.6094301999983145, 1.955030600001919, 2.1836309999998775, 2.5317041000016616, 2.83818710000196, 3.540436999996018, 4.715634499996668]",192.3925561,None,192.3925561,None,0,NTRZHLK,192.3925561,None,197.6730012,None,space,1.9256632,197.6730012,None,,,,,,,,,,,,,,,,,,,,,,,,,,,,,,,,,,,,,,,,,,,,,,,,,,,,,,,,,,,,,,,,,,,,,,,,,,,,,,,,,,,,,,,,,,,,,,,,,,,,S5,1,2019_Nov_19_1145,test_final,3.1.5,60.02627951
Practice,3,(7x2) - 5,9,,,,,,,,,0,0,0,0,0,0,0,2,,,,,,,,,,,,,,,,,,,,,,,,,,,,,,,,,,,,,,,,,,,,,,,,,,9,200.1711403,None,['9'],0,[1.6165058000042336],200.1711403,None,200.1711403,None,[1.6165058000042336],200.1711403,None,202.3351431,None,,,,,,,,,,,,,,,,,,,,,,,,,,,,,,,,,,,,,,,,,,,,,,,,,,,,,,,,,,,,,,,,,,,,,,,,,,,,,,,,,,,,,S5,1,2019_Nov_19_1145,test_final,3.1.5,60.02627951
Practice,6,(2x6) - 8,4,,,,,,,,,0,0,0,0,0,1,1,5,,,,,,,,,,,,,,,,,,,,,,,,,,,,,,,,,,,,,,,,,,,,,,,,,,4,203.8492971,None,['4'],0,[1.806403800001135],203.8492971,None,203.8492971,None,"[1.6165058000042336, 1.806403800001135]",203.8492971,None,206.1976679,None,,,,,,,,,,,,,,,,,,,,,,,,,,,,,,,,,,,,,,,,,,,,,,,,,,,,,,,,,,,,,,,,,,,,,,,,,,,,,,,,,,,,,S5,1,2019_Nov_19_1145,test_final,3.1.5,60.02627951
Practice,10,(8/4) + 3,5,,,,,,,,,0,0,0,0,0,2,2,9,,,,,,,,,,,,,,,,,,,,,,,,,,,,,,,,,,,,,,,,,,,,,,,,,,5,207.6956136,None,['5'],0,[2.1192921999972896],207.6956136,None,207.6956136,None,"[1.6165058000042336, 1.806403800001135, 2.1192921999972896]",207.6956136,None,210.3607342,None,,,,,,,,,,,,,,,,,,,,,,,,,,,,,,,,,,,,,,,,,,,,,,,,,,,,,,,,,,,,,,,,,,,,,,,,,,,,,,,,,,,,,S5,1,2019_Nov_19_1145,test_final,3.1.5,60.02627951
Practice,14,(6/3) + 4 ,6,,,,,,,,,0,0,0,0,0,3,3,13,,,,,,,,,,,,,,,,,,,,,,,,,,,,,,,,,,,,,,,,,,,,,,,,,,6,211.858882,None,['6'],0,[1.4708780000000843],211.858882,None,211.858882,None,"[1.6165058000042336, 1.806403800001135, 2.1192921999972896, 1.4708780000000843]",211.858882,None,213.8725577,None,,,,,,,,,,,,,,,,,,,,,,,,,,,,,,,,,,,,,,,,,,,,,,,,,,,,,,,,,,,,,,,,,,,,,,,,,,,,,,,,,,,,,S5,1,2019_Nov_19_1145,test_final,3.1.5,60.02627951
Practice,1,(1x2) + 1,3,,,,,,,,,0,0,0,0,0,4,4,0,,,,,,,,,,,,,,,,,,,,,,,,,,,,,,,,,,,,,,,,,,,,,,,,,,3,215.3713536,None,['3'],0,[1.4306335000001127],215.3713536,None,215.3713536,None,"[1.6165058000042336, 1.806403800001135, 2.1192921999972896, 1.4708780000000843, 1.4306335000001127]",215.3713536,None,217.3366946,None,,,,,,,,,,,,,,,,,,,,,,,,,,,,,,,,,,,,,,,,,,,,,,,,,,,,,,,,,,,,,,,,,,,,,,,,,,,,,,,,,,,,,S5,1,2019_Nov_19_1145,test_final,3.1.5,60.02627951
Practice,15,(9/3) - 2,1,,,,,,,,,0,0,0,0,0,5,5,14,,,,,,,,,,,,,,,,,,,,,,,,,,,,,,,,,,,,,,,,,,,,,,,,,,1,218.8350517,None,['1'],0,[1.5380299999960698],218.8350517,None,218.8350517,None,"[1.6165058000042336, 1.806403800001135, 2.1192921999972896, 1.4708780000000843, 1.4306335000001127, 1.5380299999960698]",218.8350517,None,220.9165488,None,,,,,,,,,,,,,,,,,,,,,,,,,,,,,,,,,,,,,,,,,,,,,,,,,,,,,,,,,,,,,,,,,,,,,,,,,,,,,,,,,,,,,S5,1,2019_Nov_19_1145,test_final,3.1.5,60.02627951
Practice,9,(4/2) + 5,7,,,,,,,,,0,0,0,0,0,6,6,8,,,,,,,,,,,,,,,,,,,,,,,,,,,,,,,,,,,,,,,,,,,,,,,,,,7,222.4150128,None,['7'],0,[1.7615095999935875],222.4150128,None,222.4150128,None,"[1.6165058000042336, 1.806403800001135, 2.1192921999972896, 1.4708780000000843, 1.4306335000001127, 1.5380299999960698, 1.7615095999935875]",222.4150128,None,224.7120217,None,,,,,,,,,,,,,,,,,,,,,,,,,,,,,,,,,,,,,,,,,,,,,,,,,,,,,,,,,,,,,,,,,,,,,,,,,,,,,,,,,,,,,S5,1,2019_Nov_19_1145,test_final,3.1.5,60.02627951
Practice,13,(3x8) - 19 ,5,,,,,,,,,0,0,0,0,0,7,7,12,,,,,,,,,,,,,,,,,,,,,,,,,,,,,,,,,,,,,,,,,,,,,,,,,,7,226.2110248,None,['7'],0,[2.1991267999983393],226.2110248,None,226.2110248,None,"[1.6165058000042336, 1.806403800001135, 2.1192921999972896, 1.4708780000000843, 1.4306335000001127, 1.5380299999960698, 1.7615095999935875, 2.1991267999983393]",226.2110248,None,228.9419406,None,,,,,,,,,,,,,,,,,,,,,,,,,,,,,,,,,,,,,,,,,,,,,,,,,,,,,,,,,,,,,,,,,,,,,,,,,,,,,,,,,,,,,S5,1,2019_Nov_19_1145,test_final,3.1.5,60.02627951
Practice,4,(4x4) - 14,2,,,,,,,,,0,0,0,0,0,8,8,3,,,,,,,,,,,,,,,,,,,,,,,,,,,,,,,,,,,,,,,,,,,,,,,,,,2,230.4403849,None,['2'],0,[1.8190822000033222],230.4403849,None,230.4403849,None,"[1.6165058000042336, 1.806403800001135, 2.1192921999972896, 1.4708780000000843, 1.4306335000001127, 1.5380299999960698, 1.7615095999935875, 2.1991267999983393, 1.8190822000033222]",230.4403849,None,232.8043649,None,,,,,,,,,,,,,,,,,,,,,,,,,,,,,,,,,,,,,,,,,,,,,,,,,,,,,,,,,,,,,,,,,,,,,,,,,,,,,,,,,,,,,S5,1,2019_Nov_19_1145,test_final,3.1.5,60.02627951
Practice,2,(1/1) - 1,0,,,,,,,,,0,0,0,0,0,9,9,1,,,,,,,,,,,,,,,,,,,,,,,,,,,,,,,,,,,,,,,,,,,,,,,,,,0,234.3030717,None,['0'],0,[1.4278487999981735],234.3030717,None,234.3030717,None,"[1.6165058000042336, 1.806403800001135, 2.1192921999972896, 1.4708780000000843, 1.4306335000001127, 1.5380299999960698, 1.7615095999935875, 2.1991267999983393, 1.8190822000033222, 1.4278487999981735]",234.3030717,None,236.2675406,None,,,,,,,,,,,,,,,,,,,,,,,,,,,,,,,,,,,,,,,,,,,,,,,,,,,,,,,,,,,,,,,,,,,,,,,,,,,,,,,,,,,,,S5,1,2019_Nov_19_1145,test_final,3.1.5,60.02627951
Practice,8,(3/3) + 5,6,,,,,,,,,0,0,0,0,0,10,10,7,,,,,,,,,,,,,,,,,,,,,,,,,,,,,,,,,,,,,,,,,,,,,,,,,,6,237.7664593,None,['6'],0,[1.8102249000003212],237.7664593,None,237.7664593,None,"[1.6165058000042336, 1.806403800001135, 2.1192921999972896, 1.4708780000000843, 1.4306335000001127, 1.5380299999960698, 1.7615095999935875, 2.1991267999983393, 1.8190822000033222, 1.4278487999981735, 1.8102249000003212]",237.7664593,None,240.1129956,None,,,,,,,,,,,,,,,,,,,,,,,,,,,,,,,,,,,,,,,,,,,,,,,,,,,,,,,,,,,,,,,,,,,,,,,,,,,,,,,,,,,,,S5,1,2019_Nov_19_1145,test_final,3.1.5,60.02627951
Practice,7,(4x6) - 17,7,,,,,,,,,0,0,0,0,0,11,11,6,,,,,,,,,,,,,,,,,,,,,,,,,,,,,,,,,,,,,,,,,,,,,,,,,,6,241.6135258,None,['6'],0,[2.451082600004156],241.6135258,None,241.6135258,None,"[1.6165058000042336, 1.806403800001135, 2.1192921999972896, 1.4708780000000843, 1.4306335000001127, 1.5380299999960698, 1.7615095999935875, 2.1991267999983393, 1.8190822000033222, 1.4278487999981735, 1.8102249000003212, 2.451082600004156]",241.6135258,None,244.6097682,None,,,,,,,,,,,,,,,,,,,,,,,,,,,,,,,,,,,,,,,,,,,,,,,,,,,,,,,,,,,,,,,,,,,,,,,,,,,,,,,,,,,,,S5,1,2019_Nov_19_1145,test_final,3.1.5,60.02627951
Practice,5,(3/3) + 2,3,,,,,,,,,0,0,0,0,0,12,12,4,,,,,,,,,,,,,,,,,,,,,,,,,,,,,,,,,,,,,,,,,,,,,,,,,,3,246.1080024,None,['3'],0,[2.129287000003387],246.1080024,None,246.1080024,None,"[1.6165058000042336, 1.806403800001135, 2.1192921999972896, 1.4708780000000843, 1.4306335000001127, 1.5380299999960698, 1.7615095999935875, 2.1991267999983393, 1.8190822000033222, 1.4278487999981735, 1.8102249000003212, 2.451082600004156, 2.129287000003387]",246.1080024,None,248.7730118,None,,,,,,,,,,,,,,,,,,,,,,,,,,,,,,,,,,,,,,,,,,,,,,,,,,,,,,,,,,,,,,,,,,,,,,,,,,,,,,,,,,,,,S5,1,2019_Nov_19_1145,test_final,3.1.5,60.02627951
Practice,11,(5x3) - 7,8,,,,,,,,,0,0,0,0,0,13,13,10,,,,,,,,,,,,,,,,,,,,,,,,,,,,,,,,,,,,,,,,,,,,,,,,,,8,250.2709027,None,['8'],0,[2.159668699998292],250.2709027,None,250.2709027,None,"[1.6165058000042336, 1.806403800001135, 2.1192921999972896, 1.4708780000000843, 1.4306335000001127, 1.5380299999960698, 1.7615095999935875, 2.1991267999983393, 1.8190822000033222, 1.4278487999981735, 1.8102249000003212, 2.451082600004156, 2.129287000003387, 2.159668699998292]",250.2709027,None,252.9686921,None,,,,,,,,,,,,,,,,,,,,,,,,,,,,,,,,,,,,,,,,,,,,,,,,,,,,,,,,,,,,,,,,,,,,,,,,,,,,,,,,,,,,,S5,1,2019_Nov_19_1145,test_final,3.1.5,60.02627951
Practice,12,(8/2) + 4,8,,,,,,,,,0,0,0,0,0,14,14,11,,,,,,,,,,,,,,,,,,,,,,,,,,,,,,,,,,,,,,,,,,,,,,,,,,8,254.4664403,None,['8'],0,[2.2905248000024585],254.4664403,None,254.4664403,None,"[1.6165058000042336, 1.806403800001135, 2.1192921999972896, 1.4708780000000843, 1.4306335000001127, 1.5380299999960698, 1.7615095999935875, 2.1991267999983393, 1.8190822000033222, 1.4278487999981735, 1.8102249000003212, 2.451082600004156, 2.129287000003387, 2.159668699998292, 2.2905248000024585]",254.4664403,None,257.297523,None,,,,,,,,,,,,,,,,,,,,,,,,,,,,,,,,,,,,,,,,,,,,,,,,,,,,,,,,,,,,,,,,,,,,,,,,,,,,,,,,,,,,,S5,1,2019_Nov_19_1145,test_final,3.1.5,60.02627951
,,,,,,,,,,,,0,0,0,0,,,,,,,,,,,,,,,,,,,,,,,,,,,,,,,,,,,,,,,,,,,,,,,,,,,,,,,,,,,,,,,,,,,,,0.866666667,28.0300987,1.868673247,1.580363142,0.324588267,2.706110974,258.7966277,None,space,2.5894914,258.7966277,None,,,,,,,,,,,,,,,,,,,,,,,,,,,,,,,,,,,,,,,,,,,,,,,,,,,,,,,,,,,,,,,,,,,,,,,,,S5,1,2019_Nov_19_1145,test_final,3.1.5,60.02627951
,,,,,,,,,,,,,,,,,,,,,,,,,,,,,,,,,,,,,,,,,,,,,,,,,,,,,,,,,,,,,,,,,,,,,,,,,,,,,,,,,,,,,,,,,,,,,,,,261.9431781,None,space,5.1998463,261.9431781,None,,,,,,,,,,,,,,,,,,,,,,,,,,,,,,,,,,,,,,,,,,,,,,,,,,,,,,,,,,,,,,,,,,,S5,1,2019_Nov_19_1145,test_final,3.1.5,60.02627951
Practice,4,(4x4) - 14,2,,,,,,,,,,,,,,,,,0,0,0,0,0,0,0,0,0,0,0,3,,,,,,,,,,,,,,,,,,,,,,,,,,,,,,,,,,,,,,2,,,,,,,,,,,,,,,,,,,,,,,,,,,,,,,,,267.7379611,None,['2'],0,[1.6163715000002412],267.7379611,None,267.7379611,None,267.7379611,None,1,269.4611981,None,269.4611981,None,,,,,,,,,,,,,,,,,,,,,,,,,,,,,,,,,,,,,,,,,,,,,,,,,,,S5,1,2019_Nov_19_1145,test_final,3.1.5,60.02627951
,,,,,,,,,,,,,,,,,,,,0,0,0,0,0,0,0,0,,,,,,,,,,,,,,,,,,,,,,,,,,,,,,,,,,,,,,,,,,,,,,,,,,,,,,,,,,,,,,,,,,,,,,,,,,,,,,,,,,,,,,,,,,,270.8011014,None,,,,,,,,,,,,,,,,,,,,,,,,,,,,,,,,,,,,,,,,,,,,,,,,,S5,1,2019_Nov_19_1145,test_final,3.1.5,60.02627951
Practice,8,(3/3) + 5,6,,,,,,,,,,,,,,,,,0,0,0,0,1,0,1,0,0,0,0,7,,,,,,,,,,,,,,,,,,,,,,,,,,,,,,,,,,,,,,,,,,,,,,,,,,,,,,,,,,,,,,,,,,,,,,,272.1162054,None,None,0,,272.1162054,None,272.1162054,None,272.1162054,None,0,274.8849343,None,274.8849343,None,,,,,,,,,,,,,,,,,,,,,,,,,,,,,,,,,,,,,,,,,,,,,,,,,,,S5,1,2019_Nov_19_1145,test_final,3.1.5,60.02627951
Practice,14,(6/3) + 4 ,6,,,,,,,,,,,,,,,,,0,0,0,0,1,0,1,0,0,1,1,13,,,,,,,,,,,,,,,,,,,,,,,,,,,,,,,,,,,,,,6,,,,,,,,,,,,,,,,,,,,,,,,,,,,,,,,,276.2286229,None,['6'],0,[1.6035424999936367],276.2286229,None,276.2286229,None,276.2286229,None,1,277.9109318,None,277.9109318,None,,,,,,,,,,,,,,,,,,,,,,,,,,,,,,,,,,,,,,,,,,,,,,,,,,,S5,1,2019_Nov_19_1145,test_final,3.1.5,60.02627951
,,,,,,,,,,,,,,,,,,,,0,0,0,0,1,0,1,0,,,,,,,,,,,,,,,,,,,,,,,,,,,,,,,,,,,,,,,,,,,,,,,,,,,,,,,,,,,,,,,,,,,,,,,,,,,,,,,,,,,,,,,,,,,279.2428565,None,,,,,,,,,,,,,,,,,,,,,,,,,,,,,,,,,,,,,,,,,,,,,,,,,S5,1,2019_Nov_19_1145,test_final,3.1.5,60.02627951
,,,,,,,,,,,,,,,,,,,,0,0,0,0,,,,,,,,,,,,,,,,,,,,,,,,,,,,,,,,,,,,,,,,,,,,,,,,,,,,,,,,,,,,,,,,,,,,,,,,,,,,,,,,,,,,,,,,,,,,,,,,,lr,"['l', 'r']",0,"[11.081019500001275, 11.500262699999439, 12.923111999996763]",280.5242932,None,280.5242932,None,280.5242932,None,1,294.0119347,None,,,,,,,,,,,,,,,,,,,,,,,,,,,,,,,,,,,,S5,1,2019_Nov_19_1145,test_final,3.1.5,60.02627951
Practice,2,(1/1) - 1,0,,,,,,,,,,,,,,,,,1,0,1,0,0,0,0,0,0,0,0,1,,,,,,,,,,,,,,,,,,,,,,,,,,,,,,,,,,,,,,0,,,,,,,,,,,,,,,,,,,,,,,,,,,,,,,,,295.5595931,None,['0'],0,[1.2910671999998158],295.5595931,None,295.5595931,None,295.5595931,None,1,296.9510132,None,296.9510132,None,,,,,,,,,,,,,,,,,,,,,,,,,,,,,,,,,,,,,,,,,,,,,,,,,,,S5,1,2019_Nov_19_1145,test_final,3.1.5,60.02627951
,,,,,,,,,,,,,,,,,,,,1,0,1,0,0,0,0,0,,,,,,,,,,,,,,,,,,,,,,,,,,,,,,,,,,,,,,,,,,,,,,,,,,,,,,,,,,,,,,,,,,,,,,,,,,,,,,,,,,,,,,,,,,,298.2907565,None,,,,,,,,,,,,,,,,,,,,,,,,,,,,,,,,,,,,,,,,,,,,,,,,,S5,1,2019_Nov_19_1145,test_final,3.1.5,60.02627951
Practice,9,(4/2) + 5,7,,,,,,,,,,,,,,,,,1,0,1,0,1,0,1,0,0,0,0,8,,,,,,,,,,,,,,,,,,,,,,,,,,,,,,,,,,,,,,7,,,,,,,,,,,,,,,,,,,,,,,,,,,,,,,,,299.589269,None,['7'],0,[2.053066000000399],299.589269,None,299.589269,None,299.589269,None,1,301.7443453,None,301.7443453,None,,,,,,,,,,,,,,,,,,,,,,,,,,,,,,,,,,,,,,,,,,,,,,,,,,,S5,1,2019_Nov_19_1145,test_final,3.1.5,60.02627951
,,,,,,,,,,,,,,,,,,,,1,0,1,0,1,0,1,0,,,,,,,,,,,,,,,,,,,,,,,,,,,,,,,,,,,,,,,,,,,,,,,,,,,,,,,,,,,,,,,,,,,,,,,,,,,,,,,,,,,,,,,,,,,303.0849793,None,,,,,,,,,,,,,,,,,,,,,,,,,,,,,,,,,,,,,,,,,,,,,,,,,S5,1,2019_Nov_19_1145,test_final,3.1.5,60.02627951
,,,,,,,,,,,,,,,,,,,,1,0,1,0,,,,,,,,,,,,,,,,,,,,,,,,,,,,,,,,,,,,,,,,,,,,,,,,,,,,,,,,,,,,,,,,,,,,,,,,,,,,,,,,,,,,,,,,,,,,,,,,,h,['h'],0,"[1.5813572000042768, 2.46741540000221]",304.3681685,None,304.3681685,None,304.3681685,None,0,307.3966358,None,,,,,,,,,,,,,,,,,,,,,,,,,,,,,,,,,,,,S5,1,2019_Nov_19_1145,test_final,3.1.5,60.02627951
Practice,1,(1x2) + 1,3,,,,,,,,,,,,,,,,,2,0,2,0,0,0,0,0,0,0,0,0,,,,,,,,,,,,,,,,,,,,,,,,,,,,,,,,,,,,,,3,,,,,,,,,,,,,,,,,,,,,,,,,,,,,,,,,308.913389,None,['3'],0,[1.6993550000042887],308.913389,None,308.913389,None,308.913389,None,1,310.7043428,None,310.7043428,None,,,,,,,,,,,,,,,,,,,,,,,,,,,,,,,,,,,,,,,,,,,,,,,,,,,S5,1,2019_Nov_19_1145,test_final,3.1.5,60.02627951
,,,,,,,,,,,,,,,,,,,,2,0,2,0,0,0,0,0,,,,,,,,,,,,,,,,,,,,,,,,,,,,,,,,,,,,,,,,,,,,,,,,,,,,,,,,,,,,,,,,,,,,,,,,,,,,,,,,,,,,,,,,,,,312.0432805,None,,,,,,,,,,,,,,,,,,,,,,,,,,,,,,,,,,,,,,,,,,,,,,,,,S5,1,2019_Nov_19_1145,test_final,3.1.5,60.02627951
Practice,9,(4/2) + 5,7,,,,,,,,,,,,,,,,,2,0,2,0,1,0,1,0,0,0,0,8,,,,,,,,,,,,,,,,,,,,,,,,,,,,,,,,,,,,,,7,,,,,,,,,,,,,,,,,,,,,,,,,,,,,,,,,313.359089,None,['7'],0,[1.9265739000038593],313.359089,None,313.359089,None,313.359089,None,1,315.381651,None,315.381651,None,,,,,,,,,,,,,,,,,,,,,,,,,,,,,,,,,,,,,,,,,,,,,,,,,,,S5,1,2019_Nov_19_1145,test_final,3.1.5,60.02627951
,,,,,,,,,,,,,,,,,,,,2,0,2,0,1,0,1,0,,,,,,,,,,,,,,,,,,,,,,,,,,,,,,,,,,,,,,,,,,,,,,,,,,,,,,,,,,,,,,,,,,,,,,,,,,,,,,,,,,,,,,,,,,,316.7219112,None,,,,,,,,,,,,,,,,,,,,,,,,,,,,,,,,,,,,,,,,,,,,,,,,,S5,1,2019_Nov_19_1145,test_final,3.1.5,60.02627951
,,,,,,,,,,,,,,,,,,,,2,0,2,0,,,,,,,,,,,,,,,,,,,,,,,,,,,,,,,,,,,,,,,,,,,,,,,,,,,,,,,,,,,,,,,,,,,,,,,,,,,,,,,,,,,,,,,,,,,,,,,,,kn,"['k', 'n']",0,"[1.1128843000042252, 1.6509731000041938, 2.300076800005627]",318.0047909,None,318.0047909,None,318.0047909,None,1,320.868607,None,,,,,,,,,,,,,,,,,,,,,,,,,,,,,,,,,,,,S5,1,2019_Nov_19_1145,test_final,3.1.5,60.02627951
Practice,9,(4/2) + 5,7,,,,,,,,,,,,,,,,,3,0,3,0,0,0,0,0,0,0,0,8,,,,,,,,,,,,,,,,,,,,,,,,,,,,,,,,,,,,,,7,,,,,,,,,,,,,,,,,,,,,,,,,,,,,,,,,322.4006025,None,['7'],0,[1.7264169999980368],322.4006025,None,322.4006025,None,322.4006025,None,1,324.2320473,None,324.2320473,None,,,,,,,,,,,,,,,,,,,,,,,,,,,,,,,,,,,,,,,,,,,,,,,,,,,S5,1,2019_Nov_19_1145,test_final,3.1.5,60.02627951
,,,,,,,,,,,,,,,,,,,,3,0,3,0,0,0,0,0,,,,,,,,,,,,,,,,,,,,,,,,,,,,,,,,,,,,,,,,,,,,,,,,,,,,,,,,,,,,,,,,,,,,,,,,,,,,,,,,,,,,,,,,,,,325.5793522,None,,,,,,,,,,,,,,,,,,,,,,,,,,,,,,,,,,,,,,,,,,,,,,,,,S5,1,2019_Nov_19_1145,test_final,3.1.5,60.02627951
Practice,10,(8/4) + 3,5,,,,,,,,,,,,,,,,,3,0,3,0,1,0,1,0,0,0,0,9,,,,,,,,,,,,,,,,,,,,,,,,,,,,,,,,,,,,,,,,,,,,,,,,,,,,,,,,,,,,,,,,,,,,,,,326.8791121,None,None,0,,326.8791121,None,326.8791121,None,326.8791121,None,0,329.6466722,None,329.6466722,None,,,,,,,,,,,,,,,,,,,,,,,,,,,,,,,,,,,,,,,,,,,,,,,,,,,S5,1,2019_Nov_19_1145,test_final,3.1.5,60.02627951
Practice,3,(7x2) - 5,9,,,,,,,,,,,,,,,,,3,0,3,0,1,0,1,0,0,1,1,2,,,,,,,,,,,,,,,,,,,,,,,,,,,,,,,,,,,,,,9,,,,,,,,,,,,,,,,,,,,,,,,,,,,,,,,,330.9914217,None,['9'],0,[1.9417049999974552],330.9914217,None,330.9914217,None,330.9914217,None,1,332.9950405,None,332.9950405,None,,,,,,,,,,,,,,,,,,,,,,,,,,,,,,,,,,,,,,,,,,,,,,,,,,,S5,1,2019_Nov_19_1145,test_final,3.1.5,60.02627951
,,,,,,,,,,,,,,,,,,,,3,0,3,0,1,0,1,0,,,,,,,,,,,,,,,,,,,,,,,,,,,,,,,,,,,,,,,,,,,,,,,,,,,,,,,,,,,,,,,,,,,,,,,,,,,,,,,,,,,,,,,,,,,334.3226548,None,,,,,,,,,,,,,,,,,,,,,,,,,,,,,,,,,,,,,,,,,,,,,,,,,S5,1,2019_Nov_19_1145,test_final,3.1.5,60.02627951
,,,,,,,,,,,,,,,,,,,,3,0,3,0,,,,,,,,,,,,,,,,,,,,,,,,,,,,,,,,,,,,,,,,,,,,,,,,,,,,,,,,,,,,,,,,,,,,,,,,,,,,,,,,,,,,,,,,,,,,,,,,,k,['k'],0,"[0.8860282999958145, 3.098650300002191]",335.6210376,None,335.6210376,None,335.6210376,None,0,339.2841042,None,,,,,,,,,,,,,,,,,,,,,,,,,,,,,,,,,,,,S5,1,2019_Nov_19_1145,test_final,3.1.5,60.02627951
Practice,15,(9/3) - 2,1,,,,,,,,,,,,,,,,,4,0,4,0,0,0,0,0,0,0,0,14,,,,,,,,,,,,,,,,,,,,,,,,,,,,,,,,,,,,,,1,,,,,,,,,,,,,,,,,,,,,,,,,,,,,,,,,340.8317934,None,['1'],0,[1.8710150000042631],340.8317934,None,340.8317934,None,340.8317934,None,1,342.8013801,None,342.8013801,None,,,,,,,,,,,,,,,,,,,,,,,,,,,,,,,,,,,,,,,,,,,,,,,,,,,S5,1,2019_Nov_19_1145,test_final,3.1.5,60.02627951
,,,,,,,,,,,,,,,,,,,,4,0,4,0,0,0,0,0,,,,,,,,,,,,,,,,,,,,,,,,,,,,,,,,,,,,,,,,,,,,,,,,,,,,,,,,,,,,,,,,,,,,,,,,,,,,,,,,,,,,,,,,,,,344.1447723,None,,,,,,,,,,,,,,,,,,,,,,,,,,,,,,,,,,,,,,,,,,,,,,,,,S5,1,2019_Nov_19_1145,test_final,3.1.5,60.02627951
Practice,7,(4x6) - 17,7,,,,,,,,,,,,,,,,,4,0,4,0,1,0,1,0,0,0,0,6,,,,,,,,,,,,,,,,,,,,,,,,,,,,,,,,,,,,,,,,,,,,,,,,,,,,,,,,,,,,,,,,,,,,,,,345.4609186,None,None,0,,345.4609186,None,345.4609186,None,345.4609186,None,0,348.217665,None,348.217665,None,,,,,,,,,,,,,,,,,,,,,,,,,,,,,,,,,,,,,,,,,,,,,,,,,,,S5,1,2019_Nov_19_1145,test_final,3.1.5,60.02627951
Practice,4,(4x4) - 14,2,,,,,,,,,,,,,,,,,4,0,4,0,1,0,1,0,0,1,1,3,,,,,,,,,,,,,,,,,,,,,,,,,,,,,,,,,,,,,,2,,,,,,,,,,,,,,,,,,,,,,,,,,,,,,,,,349.5398631,None,['2'],0,[1.5946848000021419],349.5398631,None,349.5398631,None,349.5398631,None,1,351.2068534,None,351.2068534,None,,,,,,,,,,,,,,,,,,,,,,,,,,,,,,,,,,,,,,,,,,,,,,,,,,,S5,1,2019_Nov_19_1145,test_final,3.1.5,60.02627951
,,,,,,,,,,,,,,,,,,,,4,0,4,0,1,0,1,0,,,,,,,,,,,,,,,,,,,,,,,,,,,,,,,,,,,,,,,,,,,,,,,,,,,,,,,,,,,,,,,,,,,,,,,,,,,,,,,,,,,,,,,,,,,352.5372136,None,,,,,,,,,,,,,,,,,,,,,,,,,,,,,,,,,,,,,,,,,,,,,,,,,S5,1,2019_Nov_19_1145,test_final,3.1.5,60.02627951
,,,,,,,,,,,,,,,,,,,,4,0,4,0,,,,,,,,,,,,,,,,,,,,,,,,,,,,,,,,,,,,,,,,,,,,,,,,,,,,,,,,,,,,,,,,,,,,,,,,,,,,,,,,,,,,,,,,,,,,,,,,,zs,"['z', 's']",0,"[0.818706199999724, 1.2476214000053005, 2.256290200006333]",353.8196439,None,353.8196439,None,353.8196439,None,1,356.6333446,None,,,,,,,,,,,,,,,,,,,,,,,,,,,,,,,,,,,,S5,1,2019_Nov_19_1145,test_final,3.1.5,60.02627951
Practice,15,(9/3) - 2,1,,,,,,,,,,,,,,,,,5,0,5,0,0,0,0,0,0,0,0,14,,,,,,,,,,,,,,,,,,,,,,,,,,,,,,,,,,,,,,2,,,,,,,,,,,,,,,,,,,,,,,,,,,,,,,,,358.16527,None,['2'],0,[1.5014273999986472],358.16527,None,358.16527,None,358.16527,None,0,359.7762187,None,359.7762187,None,,,,,,,,,,,,,,,,,,,,,,,,,,,,,,,,,,,,,,,,,,,,,,,,,,,S5,1,2019_Nov_19_1145,test_final,3.1.5,60.02627951
Practice,14,(6/3) + 4 ,6,,,,,,,,,,,,,,,,,5,0,5,0,0,0,0,0,0,1,1,13,,,,,,,,,,,,,,,,,,,,,,,,,,,,,,,,,,,,,,6,,,,,,,,,,,,,,,,,,,,,,,,,,,,,,,,,361.1118185,None,['6'],0,[2.4493599999987055],361.1118185,None,361.1118185,None,361.1118185,None,1,363.6206043,None,363.6206043,None,,,,,,,,,,,,,,,,,,,,,,,,,,,,,,,,,,,,,,,,,,,,,,,,,,,S5,1,2019_Nov_19_1145,test_final,3.1.5,60.02627951
,,,,,,,,,,,,,,,,,,,,5,0,5,0,0,0,0,0,,,,,,,,,,,,,,,,,,,,,,,,,,,,,,,,,,,,,,,,,,,,,,,,,,,,,,,,,,,,,,,,,,,,,,,,,,,,,,,,,,,,,,,,,,,364.9421312,None,,,,,,,,,,,,,,,,,,,,,,,,,,,,,,,,,,,,,,,,,,,,,,,,,S5,1,2019_Nov_19_1145,test_final,3.1.5,60.02627951
Practice,5,(3/3) + 2,3,,,,,,,,,,,,,,,,,5,0,5,0,1,0,1,0,0,0,0,4,,,,,,,,,,,,,,,,,,,,,,,,,,,,,,,,,,,,,,3,,,,,,,,,,,,,,,,,,,,,,,,,,,,,,,,,366.2735095,None,['3'],0,[1.924585400003707],366.2735095,None,366.2735095,None,366.2735095,None,1,368.2884631,None,368.2884631,None,,,,,,,,,,,,,,,,,,,,,,,,,,,,,,,,,,,,,,,,,,,,,,,,,,,S5,1,2019_Nov_19_1145,test_final,3.1.5,60.02627951
,,,,,,,,,,,,,,,,,,,,5,0,5,0,1,0,1,0,,,,,,,,,,,,,,,,,,,,,,,,,,,,,,,,,,,,,,,,,,,,,,,,,,,,,,,,,,,,,,,,,,,,,,,,,,,,,,,,,,,,,,,,,,,369.6200499,None,,,,,,,,,,,,,,,,,,,,,,,,,,,,,,,,,,,,,,,,,,,,,,,,,S5,1,2019_Nov_19_1145,test_final,3.1.5,60.02627951
,,,,,,,,,,,,,,,,,,,,5,0,5,0,,,,,,,,,,,,,,,,,,,,,,,,,,,,,,,,,,,,,,,,,,,,,,,,,,,,,,,,,,,,,,,,,,,,,,,,,,,,,,,,,,,,,,,,,,,,,,,,,rq,"['r', 'q']",0,"[0.7541378999958397, 1.4927266000013333, 2.81252669999958]",370.9033971,None,370.9033971,None,370.9033971,None,1,374.2666715,None,,,,,,,,,,,,,,,,,,,,,,,,,,,,,,,,,,,,S5,1,2019_Nov_19_1145,test_final,3.1.5,60.02627951
Practice,12,(8/2) + 4,8,,,,,,,,,,,,,,,,,6,0,6,0,0,0,0,0,0,0,0,11,,,,,,,,,,,,,,,,,,,,,,,,,,,,,,,,,,,,,,6,,,,,,,,,,,,,,,,,,,,,,,,,,,,,,,,,375.7978871,None,['6'],0,[1.8384318000025814],375.7978871,None,375.7978871,None,375.7978871,None,0,377.740093,None,377.740093,None,,,,,,,,,,,,,,,,,,,,,,,,,,,,,,,,,,,,,,,,,,,,,,,,,,,S5,1,2019_Nov_19_1145,test_final,3.1.5,60.02627951
Practice,10,(8/4) + 3,5,,,,,,,,,,,,,,,,,6,0,6,0,0,0,0,0,0,1,1,9,,,,,,,,,,,,,,,,,,,,,,,,,,,,,,,,,,,,,,5,,,,,,,,,,,,,,,,,,,,,,,,,,,,,,,,,379.0777646,None,['5'],0,[1.9110940000027767],379.0777646,None,379.0777646,None,379.0777646,None,1,381.047822,None,381.047822,None,,,,,,,,,,,,,,,,,,,,,,,,,,,,,,,,,,,,,,,,,,,,,,,,,,,S5,1,2019_Nov_19_1145,test_final,3.1.5,60.02627951
,,,,,,,,,,,,,,,,,,,,6,0,6,0,0,0,0,0,,,,,,,,,,,,,,,,,,,,,,,,,,,,,,,,,,,,,,,,,,,,,,,,,,,,,,,,,,,,,,,,,,,,,,,,,,,,,,,,,,,,,,,,,,,382.3750685,None,,,,,,,,,,,,,,,,,,,,,,,,,,,,,,,,,,,,,,,,,,,,,,,,,S5,1,2019_Nov_19_1145,test_final,3.1.5,60.02627951
Practice,14,(6/3) + 4 ,6,,,,,,,,,,,,,,,,,6,0,6,0,1,0,1,0,0,0,0,13,,,,,,,,,,,,,,,,,,,,,,,,,,,,,,,,,,,,,,6,,,,,,,,,,,,,,,,,,,,,,,,,,,,,,,,,383.7067568,None,['6'],0,[2.4337569999988773],383.7067568,None,383.7067568,None,383.7067568,None,1,386.2423467,None,386.2423467,None,,,,,,,,,,,,,,,,,,,,,,,,,,,,,,,,,,,,,,,,,,,,,,,,,,,S5,1,2019_Nov_19_1145,test_final,3.1.5,60.02627951
,,,,,,,,,,,,,,,,,,,,6,0,6,0,1,0,1,0,,,,,,,,,,,,,,,,,,,,,,,,,,,,,,,,,,,,,,,,,,,,,,,,,,,,,,,,,,,,,,,,,,,,,,,,,,,,,,,,,,,,,,,,,,,387.5687869,None,,,,,,,,,,,,,,,,,,,,,,,,,,,,,,,,,,,,,,,,,,,,,,,,,S5,1,2019_Nov_19_1145,test_final,3.1.5,60.02627951
,,,,,,,,,,,,,,,,,,,,6,0,6,0,,,,,,,,,,,,,,,,,,,,,,,,,,,,,,,,,,,,,,,,,,,,,,,,,,,,,,,,,,,,,,,,,,,,,,,,,,,,,,,,,,,,,,,,,,,,,,,,,tn,"['t', 'n']",0,"[1.2313035000042873, 1.4962503999995533, 2.150736900002812]",388.8683175,None,388.8683175,None,388.8683175,None,1,391.5810166,None,,,,,,,,,,,,,,,,,,,,,,,,,,,,,,,,,,,,S5,1,2019_Nov_19_1145,test_final,3.1.5,60.02627951
,,,,,,,,,,,,,,,,,,,,,,,,,,,,,,,,,,,,,,,,,,,,,,,,,,,,,,,,,,,,,,,,,,,,,,,,,,,,,,,,,,,,,,,,,,,,,,,,,,,,,,,,,,,,,,,,,,,,,,,,,,,,,,,,,,,,,393.0967528,None,space,8.2655682,393.0967528,None,,,,,,,,,,,,,,,,,,,,,,,,,,,,,,S5,1,2019_Nov_19_1145,test_final,3.1.5,60.02627951
Practice,3,(7x2) - 5,9,,,,,,,,,,,,,,,,,,,,,,,,,,,,,0,0,0,0,0,0,0,0,0,0,0,2,,,,,,,,,,,,,,,,,,,,,,,,,,9,,,,,,,,,,,,,,,,,,,,,,,,,,,,,,,,,,,,,,,,,,,,1,,,,,,,,,,,,,,,,,,,,,,,,,,401.9535881,None,['9'],0,[1.4408493999944767],401.9535881,None,401.9535881,None,401.9535881,None,403.4937046,None,403.4937046,None,,,,,,,,,,,,,,,S5,1,2019_Nov_19_1145,test_final,3.1.5,60.02627951
,,,,,,,,,,,,,,,,,,,,,,,,,,,,,,,,0,0,0,0,0,0,0,0,,,,,,,,,,,,,,,,,,,,,,,,,,,,,,,,,,,,,,,,,,,,,,,,,,,,,,,,,,,,,,,,,,,,,,,,,,,,,,,,,,,,,,,,,,,,,,,,,,,,,,,,,,,,,,,,,,,404.8359664,None,,,,,,,,,,,,,S5,1,2019_Nov_19_1145,test_final,3.1.5,60.02627951
Practice,7,(4x6) - 17,7,,,,,,,,,,,,,,,,,,,,,,,,,,,,,0,0,0,0,1,0,1,0,0,0,0,6,,,,,,,,,,,,,,,,,,,,,,,,,,8,,,,,,,,,,,,,,,,,,,,,,,,,,,,,,,,,,,,,,,,,,,,0,,,,,,,,,,,,,,,,,,,,,,,,,,406.1515854,None,['8'],0,[2.4700660000016796],406.1515854,None,406.1515854,None,406.1515854,None,408.7254518,None,408.7254518,None,,,,,,,,,,,,,,,S5,1,2019_Nov_19_1145,test_final,3.1.5,60.02627951
Practice,10,(8/4) + 3,5,,,,,,,,,,,,,,,,,,,,,,,,,,,,,0,0,0,0,1,0,1,0,0,1,1,9,,,,,,,,,,,,,,,,,,,,,,,,,,5,,,,,,,,,,,,,,,,,,,,,,,,,,,,,,,,,,,,,,,,,,,,1,,,,,,,,,,,,,,,,,,,,,,,,,,410.0809513,None,['5'],0,[1.7879762999946252],410.0809513,None,410.0809513,None,410.0809513,None,411.9431986,None,411.9431986,None,,,,,,,,,,,,,,,S5,1,2019_Nov_19_1145,test_final,3.1.5,60.02627951
,,,,,,,,,,,,,,,,,,,,,,,,,,,,,,,,0,0,0,0,1,0,1,0,,,,,,,,,,,,,,,,,,,,,,,,,,,,,,,,,,,,,,,,,,,,,,,,,,,,,,,,,,,,,,,,,,,,,,,,,,,,,,,,,,,,,,,,,,,,,,,,,,,,,,,,,,,,,,,,,,,413.2614332,None,,,,,,,,,,,,,S5,1,2019_Nov_19_1145,test_final,3.1.5,60.02627951
,,,,,,,,,,,,,,,,,,,,,,,,,,,,,,,,0,0,0,0,,,,,,,,,,,,,,,,,,,,,,,,,,,,,,,,,,,,,,,,,,,,,,,,,,,,,,,,,,,,,,,,,,,,,,,,,,,,,,,,,,,,,,,,,,,,,,,,,,,,,,,,,,,,,,,,,,,,,,,,,zx,"['z', 'x']",0,"[0.9805495000036899, 1.3901923000012175, 2.006667000001471]",414.5597864,None,414.5597864,None,1,ZX,414.5597864,None,S5,1,2019_Nov_19_1145,test_final,3.1.5,60.02627951
Practice,5,(3/3) + 2,3,,,,,,,,,,,,,,,,,,,,,,,,,,,,,1,0,1,0,0,0,0,0,0,0,0,4,,,,,,,,,,,,,,,,,,,,,,,,,,1,,,,,,,,,,,,,,,,,,,,,,,,,,,,,,,,,,,,,,,,,,,,0,,,,,,,,,,,,,,,,,,,,,,,,,,417.1404452,None,['1'],0,[2.092755500001658],417.1404452,None,417.1404452,None,417.1404452,None,419.3204843,None,419.3204843,None,,,,,,,,,,,,,,,S5,1,2019_Nov_19_1145,test_final,3.1.5,60.02627951
Practice,10,(8/4) + 3,5,,,,,,,,,,,,,,,,,,,,,,,,,,,,,1,0,1,0,0,0,0,0,0,1,1,9,,,,,,,,,,,,,,,,,,,,,,,,,,5,,,,,,,,,,,,,,,,,,,,,,,,,,,,,,,,,,,,,,,,,,,,1,,,,,,,,,,,,,,,,,,,,,,,,,,420.654277,None,['5'],0,[1.5564003000035882],420.654277,None,420.654277,None,420.654277,None,422.2816025,None,422.2816025,None,,,,,,,,,,,,,,,S5,1,2019_Nov_19_1145,test_final,3.1.5,60.02627951
,,,,,,,,,,,,,,,,,,,,,,,,,,,,,,,,1,0,1,0,0,0,0,0,,,,,,,,,,,,,,,,,,,,,,,,,,,,,,,,,,,,,,,,,,,,,,,,,,,,,,,,,,,,,,,,,,,,,,,,,,,,,,,,,,,,,,,,,,,,,,,,,,,,,,,,,,,,,,,,,,,423.6018421,None,,,,,,,,,,,,,S5,1,2019_Nov_19_1145,test_final,3.1.5,60.02627951
Practice,3,(7x2) - 5,9,,,,,,,,,,,,,,,,,,,,,,,,,,,,,1,0,1,0,1,0,1,0,0,0,0,2,,,,,,,,,,,,,,,,,,,,,,,,,,9,,,,,,,,,,,,,,,,,,,,,,,,,,,,,,,,,,,,,,,,,,,,1,,,,,,,,,,,,,,,,,,,,,,,,,,424.9164131,None,['9'],0,[1.5315859999973327],424.9164131,None,424.9164131,None,424.9164131,None,426.5566768,None,426.5566768,None,,,,,,,,,,,,,,,S5,1,2019_Nov_19_1145,test_final,3.1.5,60.02627951
,,,,,,,,,,,,,,,,,,,,,,,,,,,,,,,,1,0,1,0,1,0,1,0,,,,,,,,,,,,,,,,,,,,,,,,,,,,,,,,,,,,,,,,,,,,,,,,,,,,,,,,,,,,,,,,,,,,,,,,,,,,,,,,,,,,,,,,,,,,,,,,,,,,,,,,,,,,,,,,,,,427.8799331,None,,,,,,,,,,,,,S5,1,2019_Nov_19_1145,test_final,3.1.5,60.02627951
Practice,14,(6/3) + 4 ,6,,,,,,,,,,,,,,,,,,,,,,,,,,,,,1,0,1,0,2,0,2,0,0,0,0,13,,,,,,,,,,,,,,,,,,,,,,,,,,6,,,,,,,,,,,,,,,,,,,,,,,,,,,,,,,,,,,,,,,,,,,,1,,,,,,,,,,,,,,,,,,,,,,,,,,429.2110389,None,['6'],0,[1.7413768999977037],429.2110389,None,429.2110389,None,429.2110389,None,431.0494741,None,431.0494741,None,,,,,,,,,,,,,,,S5,1,2019_Nov_19_1145,test_final,3.1.5,60.02627951
,,,,,,,,,,,,,,,,,,,,,,,,,,,,,,,,1,0,1,0,2,0,2,0,,,,,,,,,,,,,,,,,,,,,,,,,,,,,,,,,,,,,,,,,,,,,,,,,,,,,,,,,,,,,,,,,,,,,,,,,,,,,,,,,,,,,,,,,,,,,,,,,,,,,,,,,,,,,,,,,,,432.393134,None,,,,,,,,,,,,,S5,1,2019_Nov_19_1145,test_final,3.1.5,60.02627951
,,,,,,,,,,,,,,,,,,,,,,,,,,,,,,,,1,0,1,0,,,,,,,,,,,,,,,,,,,,,,,,,,,,,,,,,,,,,,,,,,,,,,,,,,,,,,,,,,,,,,,,,,,,,,,,,,,,,,,,,,,,,,,,,,,,,,,,,,,,,,,,,,,,,,,,,,,,,,,,,khq,"['k', 'h', 'q']",0,"[0.5197180999966804, 1.018354799998633, 1.378315299996757, 2.1329430999976466]",433.6747749,None,433.6747749,None,1,KHQ,433.6747749,None,S5,1,2019_Nov_19_1145,test_final,3.1.5,60.02627951
Practice,7,(4x6) - 17,7,,,,,,,,,,,,,,,,,,,,,,,,,,,,,2,0,2,0,0,0,0,0,0,0,0,6,,,,,,,,,,,,,,,,,,,,,,,,,,7,,,,,,,,,,,,,,,,,,,,,,,,,,,,,,,,,,,,,,,,,,,,1,,,,,,,,,,,,,,,,,,,,,,,,,,436.4049981,None,['7'],0,[2.2708419999980833],436.4049981,None,436.4049981,None,436.4049981,None,438.7784308,None,438.7784308,None,,,,,,,,,,,,,,,S5,1,2019_Nov_19_1145,test_final,3.1.5,60.02627951
,,,,,,,,,,,,,,,,,,,,,,,,,,,,,,,,2,0,2,0,0,0,0,0,,,,,,,,,,,,,,,,,,,,,,,,,,,,,,,,,,,,,,,,,,,,,,,,,,,,,,,,,,,,,,,,,,,,,,,,,,,,,,,,,,,,,,,,,,,,,,,,,,,,,,,,,,,,,,,,,,,440.1189855,None,,,,,,,,,,,,,S5,1,2019_Nov_19_1145,test_final,3.1.5,60.02627951
Practice,6,(2x6) - 8,4,,,,,,,,,,,,,,,,,,,,,,,,,,,,,2,0,2,0,1,0,1,0,0,0,0,5,,,,,,,,,,,,,,,,,,,,,,,,,,4,,,,,,,,,,,,,,,,,,,,,,,,,,,,,,,,,,,,,,,,,,,,1,,,,,,,,,,,,,,,,,,,,,,,,,,441.4335024,None,['4'],0,[1.6433987999989768],441.4335024,None,441.4335024,None,441.4335024,None,443.1783805,None,443.1783805,None,,,,,,,,,,,,,,,S5,1,2019_Nov_19_1145,test_final,3.1.5,60.02627951
,,,,,,,,,,,,,,,,,,,,,,,,,,,,,,,,2,0,2,0,1,0,1,0,,,,,,,,,,,,,,,,,,,,,,,,,,,,,,,,,,,,,,,,,,,,,,,,,,,,,,,,,,,,,,,,,,,,,,,,,,,,,,,,,,,,,,,,,,,,,,,,,,,,,,,,,,,,,,,,,,,444.4974617,None,,,,,,,,,,,,,S5,1,2019_Nov_19_1145,test_final,3.1.5,60.02627951
Practice,3,(7x2) - 5,9,,,,,,,,,,,,,,,,,,,,,,,,,,,,,2,0,2,0,2,0,2,0,0,0,0,2,,,,,,,,,,,,,,,,,,,,,,,,,,9,,,,,,,,,,,,,,,,,,,,,,,,,,,,,,,,,,,,,,,,,,,,1,,,,,,,,,,,,,,,,,,,,,,,,,,445.8293265,None,['9'],0,[1.548376400001871],445.8293265,None,445.8293265,None,445.8293265,None,447.4673235,None,447.4673235,None,,,,,,,,,,,,,,,S5,1,2019_Nov_19_1145,test_final,3.1.5,60.02627951
,,,,,,,,,,,,,,,,,,,,,,,,,,,,,,,,2,0,2,0,2,0,2,0,,,,,,,,,,,,,,,,,,,,,,,,,,,,,,,,,,,,,,,,,,,,,,,,,,,,,,,,,,,,,,,,,,,,,,,,,,,,,,,,,,,,,,,,,,,,,,,,,,,,,,,,,,,,,,,,,,,448.8095791,None,,,,,,,,,,,,,S5,1,2019_Nov_19_1145,test_final,3.1.5,60.02627951
Practice,12,(8/2) + 4,8,,,,,,,,,,,,,,,,,,,,,,,,,,,,,2,0,2,0,3,0,3,0,0,0,0,11,,,,,,,,,,,,,,,,,,,,,,,,,,8,,,,,,,,,,,,,,,,,,,,,,,,,,,,,,,,,,,,,,,,,,,,1,,,,,,,,,,,,,,,,,,,,,,,,,,450.1248511,None,['8'],0,[1.4303436000045622],450.1248511,None,450.1248511,None,450.1248511,None,451.6442649,None,451.6442649,None,,,,,,,,,,,,,,,S5,1,2019_Nov_19_1145,test_final,3.1.5,60.02627951
,,,,,,,,,,,,,,,,,,,,,,,,,,,,,,,,2,0,2,0,3,0,3,0,,,,,,,,,,,,,,,,,,,,,,,,,,,,,,,,,,,,,,,,,,,,,,,,,,,,,,,,,,,,,,,,,,,,,,,,,,,,,,,,,,,,,,,,,,,,,,,,,,,,,,,,,,,,,,,,,,,452.9892049,None,,,,,,,,,,,,,S5,1,2019_Nov_19_1145,test_final,3.1.5,60.02627951
,,,,,,,,,,,,,,,,,,,,,,,,,,,,,,,,2,0,2,0,,,,,,,,,,,,,,,,,,,,,,,,,,,,,,,,,,,,,,,,,,,,,,,,,,,,,,,,,,,,,,,,,,,,,,,,,,,,,,,,,,,,,,,,,,,,,,,,,,,,,,,,,,,,,,,,,,,,,,,,,zqk,"['z', 'q', 'k']",0,"[0.7558360000039102, 1.291969900004915, 1.6308055000044988, 2.1806788000030792]",454.2708713,None,454.2708713,None,0,HZQK,454.2708713,None,S5,1,2019_Nov_19_1145,test_final,3.1.5,60.02627951
Practice,6,(2x6) - 8,4,,,,,,,,,,,,,,,,,,,,,,,,,,,,,3,0,3,0,0,0,0,0,0,0,0,5,,,,,,,,,,,,,,,,,,,,,,,,,,4,,,,,,,,,,,,,,,,,,,,,,,,,,,,,,,,,,,,,,,,,,,,1,,,,,,,,,,,,,,,,,,,,,,,,,,457.0183477,None,['4'],0,[1.474910999997519],457.0183477,None,457.0183477,None,457.0183477,None,458.5935617,None,458.5935617,None,,,,,,,,,,,,,,,S5,1,2019_Nov_19_1145,test_final,3.1.5,60.02627951
,,,,,,,,,,,,,,,,,,,,,,,,,,,,,,,,3,0,3,0,0,0,0,0,,,,,,,,,,,,,,,,,,,,,,,,,,,,,,,,,,,,,,,,,,,,,,,,,,,,,,,,,,,,,,,,,,,,,,,,,,,,,,,,,,,,,,,,,,,,,,,,,,,,,,,,,,,,,,,,,,,459.9312356,None,,,,,,,,,,,,,S5,1,2019_Nov_19_1145,test_final,3.1.5,60.02627951
Practice,15,(9/3) - 2,1,,,,,,,,,,,,,,,,,,,,,,,,,,,,,3,0,3,0,1,0,1,0,0,0,0,14,,,,,,,,,,,,,,,,,,,,,,,,,,5,,,,,,,,,,,,,,,,,,,,,,,,,,,,,,,,,,,,,,,,,,,,0,,,,,,,,,,,,,,,,,,,,,,,,,,461.2473887,None,['5'],0,[2.131931700001587],461.2473887,None,461.2473887,None,461.2473887,None,463.4638473,None,463.4638473,None,,,,,,,,,,,,,,,S5,1,2019_Nov_19_1145,test_final,3.1.5,60.02627951
Practice,4,(4x4) - 14,2,,,,,,,,,,,,,,,,,,,,,,,,,,,,,3,0,3,0,1,0,1,0,0,1,1,3,,,,,,,,,,,,,,,,,,,,,,,,,,2,,,,,,,,,,,,,,,,,,,,,,,,,,,,,,,,,,,,,,,,,,,,1,,,,,,,,,,,,,,,,,,,,,,,,,,464.793717,None,['2'],0,[1.727985899997293],464.793717,None,464.793717,None,464.793717,None,466.5899811,None,466.5899811,None,,,,,,,,,,,,,,,S5,1,2019_Nov_19_1145,test_final,3.1.5,60.02627951
,,,,,,,,,,,,,,,,,,,,,,,,,,,,,,,,3,0,3,0,1,0,1,0,,,,,,,,,,,,,,,,,,,,,,,,,,,,,,,,,,,,,,,,,,,,,,,,,,,,,,,,,,,,,,,,,,,,,,,,,,,,,,,,,,,,,,,,,,,,,,,,,,,,,,,,,,,,,,,,,,,467.9085222,None,,,,,,,,,,,,,S5,1,2019_Nov_19_1145,test_final,3.1.5,60.02627951
Practice,3,(7x2) - 5,9,,,,,,,,,,,,,,,,,,,,,,,,,,,,,3,0,3,0,2,0,2,0,0,0,0,2,,,,,,,,,,,,,,,,,,,,,,,,,,9,,,,,,,,,,,,,,,,,,,,,,,,,,,,,,,,,,,,,,,,,,,,1,,,,,,,,,,,,,,,,,,,,,,,,,,469.2396472,None,['9'],0,[1.5739959999991697],469.2396472,None,469.2396472,None,469.2396472,None,470.9062393,None,470.9062393,None,,,,,,,,,,,,,,,S5,1,2019_Nov_19_1145,test_final,3.1.5,60.02627951
,,,,,,,,,,,,,,,,,,,,,,,,,,,,,,,,3,0,3,0,2,0,2,0,,,,,,,,,,,,,,,,,,,,,,,,,,,,,,,,,,,,,,,,,,,,,,,,,,,,,,,,,,,,,,,,,,,,,,,,,,,,,,,,,,,,,,,,,,,,,,,,,,,,,,,,,,,,,,,,,,,472.2370418,None,,,,,,,,,,,,,S5,1,2019_Nov_19_1145,test_final,3.1.5,60.02627951
Practice,9,(4/2) + 5,7,,,,,,,,,,,,,,,,,,,,,,,,,,,,,3,0,3,0,3,0,3,0,0,0,0,8,,,,,,,,,,,,,,,,,,,,,,,,,,7,,,,,,,,,,,,,,,,,,,,,,,,,,,,,,,,,,,,,,,,,,,,1,,,,,,,,,,,,,,,,,,,,,,,,,,473.5688781,None,['7'],0,[2.5858192999949097],473.5688781,None,473.5688781,None,473.5688781,None,476.2563836,None,476.2563836,None,,,,,,,,,,,,,,,S5,1,2019_Nov_19_1145,test_final,3.1.5,60.02627951
,,,,,,,,,,,,,,,,,,,,,,,,,,,,,,,,3,0,3,0,3,0,3,0,,,,,,,,,,,,,,,,,,,,,,,,,,,,,,,,,,,,,,,,,,,,,,,,,,,,,,,,,,,,,,,,,,,,,,,,,,,,,,,,,,,,,,,,,,,,,,,,,,,,,,,,,,,,,,,,,,,477.5988369,None,,,,,,,,,,,,,S5,1,2019_Nov_19_1145,test_final,3.1.5,60.02627951
,,,,,,,,,,,,,,,,,,,,,,,,,,,,,,,,3,0,3,0,,,,,,,,,,,,,,,,,,,,,,,,,,,,,,,,,,,,,,,,,,,,,,,,,,,,,,,,,,,,,,,,,,,,,,,,,,,,,,,,,,,,,,,,,,,,,,,,,,,,,,,,,,,,,,,,,,,,,,,,,kqv,"['k', 'q', 'v']",0,"[0.8811499000003096, 1.2123356000010972, 1.6312237000020104, 2.2314489999989746]",478.8805532,None,478.8805532,None,0,KJTV,478.8805532,None,S5,1,2019_Nov_19_1145,test_final,3.1.5,60.02627951
