Task,Trial,Problem,Operation_answer,next_level.thisRepN,next_level.thisTrialN,next_level.thisN,next_level.thisIndex,next_letter.thisRepN,next_letter.thisTrialN,next_letter.thisN,next_letter.thisIndex,repeat_practice.thisRepN,repeat_practice.thisTrialN,repeat_practice.thisN,repeat_practice.thisIndex,trials.thisRepN,trials.thisTrialN,trials.thisN,trials.thisIndex,span_recall_prac.thisRepN,span_recall_prac.thisTrialN,span_recall_prac.thisN,span_recall_prac.thisIndex,span_size_prac.thisRepN,span_size_prac.thisTrialN,span_size_prac.thisN,span_size_prac.thisIndex,repeat_if_wrong_prac.thisRepN,repeat_if_wrong_prac.thisTrialN,repeat_if_wrong_prac.thisN,repeat_if_wrong_prac.thisIndex,span_recall.thisRepN,span_recall.thisTrialN,span_recall.thisN,span_recall.thisIndex,span_size.thisRepN,span_size.thisTrialN,span_size.thisN,span_size.thisIndex,repeat_if_wrong.thisRepN,repeat_if_wrong.thisTrialN,repeat_if_wrong.thisN,repeat_if_wrong.thisIndex,instructions_2.started,instructions_2.stopped,key_resp_4.keys,key_resp_4.rt,key_resp_4.started,key_resp_4.stopped,text_2.started,text_2.stopped,simple_recall,key_resp_5.keys,key_resp_5.rt,key_resp_5.started,key_resp_5.stopped,text_feedback.started,text_feedback.stopped,simple_recall_corr,simple_recall_corrkeys,instructions_3.started,instructions_3.stopped,instructions.started,instructions.stopped,key_resp_2.keys,key_resp_2.rt,key_resp_2.started,key_resp_2.stopped,digit_answer,operation.started,operation.stopped,key_resp.keys,key_resp.corr,key_resp.rt,key_resp.started,key_resp.stopped,operation_feedback.started,operation_feedback.stopped,RT_list,instructions_8.started,instructions_8.stopped,feedback_msg.started,feedback_msg.stopped,processing_score,sumRT,meanRT,sumdiff,sd,RT,feedback_msg_2.started,feedback_msg_2.stopped,key_resp_3.keys,key_resp_3.rt,key_resp_3.started,key_resp_3.stopped,instructions_4.started,instructions_4.stopped,key_resp_6.keys,key_resp_6.rt,key_resp_6.started,key_resp_6.stopped,operation_3.started,operation_3.stopped,key_resp_11.keys,key_resp_11.corr,key_resp_11.rt,key_resp_11.started,key_resp_11.stopped,operation_feedback_2.started,operation_feedback_2.stopped,instructions_9.started,instructions_9.stopped,operation_correct,feedback_msg_4.started,feedback_msg_4.stopped,operation_4.started,operation_4.stopped,text_3.started,text_3.stopped,complex_recall_prac,key_resp_9.keys,key_resp_9.corr,key_resp_9.rt,key_resp_9.started,key_resp_9.stopped,text_feedback_3.started,text_feedback_3.stopped,instructions_6.started,instructions_6.stopped,complex_prac_corr,feedback_msg_3.started,feedback_msg_3.stopped,instructions_7.started,instructions_7.stopped,key_resp_10.keys,key_resp_10.rt,key_resp_10.started,key_resp_10.stopped,operation_2.started,operation_2.stopped,key_resp_7.keys,key_resp_7.corr,key_resp_7.rt,key_resp_7.started,key_resp_7.stopped,operation_feedback_3.started,operation_feedback_3.stopped,instructions_10.started,instructions_10.stopped,feedback_msg_5.started,feedback_msg_5.stopped,operation_5.started,operation_5.stopped,text.started,text.stopped,complex_recall,key_resp_8.keys,key_resp_8.corr,key_resp_8.rt,key_resp_8.started,key_resp_8.stopped,text_feedback_2.started,text_feedback_2.stopped,complex_recall_corr,complex_recall_corrkeys,instructions_5.started,instructions_5.stopped,participant,session,date,expName,psychopyVersion,frameRate,
,,,,,,,,,,,,,,,,,,,,,,,,,,,,,,,,,,,,,,,,,,,,22.84119798010215,None,space,70.22370959911495,22.84119798010215,None,,,,,,,,,,,,,,,,,,,,,,,,,,,,,,,,,,,,,,,,,,,,,,,,,,,,,,,,,,,,,,,,,,,,,,,,,,,,,,,,,,,,,,,,,,,,,,,,,,,,,,,,,,,,,,,,,,,,,,,S6,001,2019_Nov_22_1139,test_final,3.2.4,60.02002121049636,
,,,,0,0,0,0,0,0,0,0,,,,,,,,,,,,,,,,,,,,,,,,,,,,,,,,,,,,,,,93.61068851919845,None,,,,,,,,,,,,,,,,,,,,,,,,,,,,,,,,,,,,,,,,,,,,,,,,,,,,,,,,,,,,,,,,,,,,,,,,,,,,,,,,,,,,,,,,,,,,,,,,,,,,,,,,,,,,,,,,,,,,,S6,001,2019_Nov_22_1139,test_final,3.2.4,60.02002121049636,
,,,,0,0,0,0,1,0,1,0,,,,,,,,,,,,,,,,,,,,,,,,,,,,,,,,,,,,,,,94.9101666463539,None,,,,,,,,,,,,,,,,,,,,,,,,,,,,,,,,,,,,,,,,,,,,,,,,,,,,,,,,,,,,,,,,,,,,,,,,,,,,,,,,,,,,,,,,,,,,,,,,,,,,,,,,,,,,,,,,,,,,,S6,001,2019_Nov_22_1139,test_final,3.2.4,60.02002121049636,
,,,,1,0,1,0,0,0,0,0,,,,,,,,,,,,,,,,,,,,,,,,,,,,,,,,,,,,,,,103.11731912521645,None,vj,"['v', 'j']","[4.2497034491971135, 5.17410065094009, 6.348057786934078]",96.22521633002907,None,96.22521633002907,None,1,VJ,96.22521633002907,None,,,,,,,,,,,,,,,,,,,,,,,,,,,,,,,,,,,,,,,,,,,,,,,,,,,,,,,,,,,,,,,,,,,,,,,,,,,,,,,,,,,,,,,,,,,,,,,,,,,,,,,,,,S6,001,2019_Nov_22_1139,test_final,3.2.4,60.02002121049636,
,,,,1,0,1,0,1,0,1,0,,,,,,,,,,,,,,,,,,,,,,,,,,,,,,,,,,,,,,,104.43279406474903,None,,,,,,,,,,,,,,,,,,,,,,,,,,,,,,,,,,,,,,,,,,,,,,,,,,,,,,,,,,,,,,,,,,,,,,,,,,,,,,,,,,,,,,,,,,,,,,,,,,,,,,,,,,,,,,,,,,,,,S6,001,2019_Nov_22_1139,test_final,3.2.4,60.02002121049636,
,,,,2,0,2,0,0,0,0,0,,,,,,,,,,,,,,,,,,,,,,,,,,,,,,,,,,,,,,,108.67748154047877,None,hr,"['h', 'r']","[1.2717049727216363, 1.7159841181710362, 2.4247240773402154]",105.71425770642236,None,105.71425770642236,None,1,HR,105.71425770642236,None,,,,,,,,,,,,,,,,,,,,,,,,,,,,,,,,,,,,,,,,,,,,,,,,,,,,,,,,,,,,,,,,,,,,,,,,,,,,,,,,,,,,,,,,,,,,,,,,,,,,,,,,,,S6,001,2019_Nov_22_1139,test_final,3.2.4,60.02002121049636,
,,,,2,0,2,0,1,0,1,0,,,,,,,,,,,,,,,,,,,,,,,,,,,,,,,,,,,,,,,109.95952276838943,109.47667404776439,,,,,,,,,,,,,,,,,,,,,,,,,,,,,,,,,,,,,,,,,,,,,,,,,,,,,,,,,,,,,,,,,,,,,,,,,,,,,,,,,,,,,,,,,,,,,,,,,,,,,,,,,,,,,,,,,,,,,S6,001,2019_Nov_22_1139,test_final,3.2.4,60.02002121049636,
,,,,2,0,2,0,2,0,2,0,,,,,,,,,,,,,,,,,,,,,,,,,,,,,,,,,,,,,,,111.25886478554457,110.7599448505789,,,,,,,,,,,,,,,,,,,,,,,,,,,,,,,,,,,,,,,,,,,,,,,,,,,,,,,,,,,,,,,,,,,,,,,,,,,,,,,,,,,,,,,,,,,,,,,,,,,,,,,,,,,,,,,,,,,,,S6,001,2019_Nov_22_1139,test_final,3.2.4,60.02002121049636,
,,,,3,0,3,0,0,0,0,0,,,,,,,,,,,,,,,,,,,,,,,,,,,,,,,,,,,,,,,115.67021551914513,None,trh,"['t', 'r', 'h']","[0.5226231864653528, 1.4485235936008394, 1.6981946020387113, 2.5733541608788073]",112.55707878153771,None,112.55707878153771,None,1,TRH,112.55707878153771,None,,,,,,,,,,,,,,,,,,,,,,,,,,,,,,,,,,,,,,,,,,,,,,,,,,,,,,,,,,,,,,,,,,,,,,,,,,,,,,,,,,,,,,,,,,,,,,,,,,,,,,,,,,S6,001,2019_Nov_22_1139,test_final,3.2.4,60.02002121049636,
,,,,3,0,3,0,1,0,1,0,,,,,,,,,,,,,,,,,,,,,,,,,,,,,,,,,,,,,,,116.96863085962832,116.46900639636442,,,,,,,,,,,,,,,,,,,,,,,,,,,,,,,,,,,,,,,,,,,,,,,,,,,,,,,,,,,,,,,,,,,,,,,,,,,,,,,,,,,,,,,,,,,,,,,,,,,,,,,,,,,,,,,,,,,,,S6,001,2019_Nov_22_1139,test_final,3.2.4,60.02002121049636,
,,,,3,0,3,0,2,0,2,0,,,,,,,,,,,,,,,,,,,,,,,,,,,,,,,,,,,,,,,118.26736919675022,None,,,,,,,,,,,,,,,,,,,,,,,,,,,,,,,,,,,,,,,,,,,,,,,,,,,,,,,,,,,,,,,,,,,,,,,,,,,,,,,,,,,,,,,,,,,,,,,,,,,,,,,,,,,,,,,,,,,,,S6,001,2019_Nov_22_1139,test_final,3.2.4,60.02002121049636,
,,,,4,0,4,0,0,0,0,0,,,,,,,,,,,,,,,,,,,,,,,,,,,,,,,,,,,,,,,121.58027638075873,None,ltr,"['l', 't', 'r']","[0.6331569072790444, 0.9448792990297079, 1.3129667765460908, 1.4933200278319418]",119.56665444234386,None,119.56665444234386,None,1,LTR,119.56665444234386,None,,,,,,,,,,,,,,,,,,,,,,,,,,,,,,,,,,,,,,,,,,,,,,,,,,,,,,,,,,,,,,,,,,,,,,,,,,,,,,,,,,,,,,,,,,,,,,,,,,,,,,,,,,S6,001,2019_Nov_22_1139,test_final,3.2.4,60.02002121049636,
,,,,4,0,4,0,1,0,1,0,,,,,,,,,,,,,,,,,,,,,,,,,,,,,,,,,,,,,,,122.89559334795922,122.39836385799572,,,,,,,,,,,,,,,,,,,,,,,,,,,,,,,,,,,,,,,,,,,,,,,,,,,,,,,,,,,,,,,,,,,,,,,,,,,,,,,,,,,,,,,,,,,,,,,,,,,,,,,,,,,,,,,,,,,,,S6,001,2019_Nov_22_1139,test_final,3.2.4,60.02002121049636,
,,,,4,0,4,0,2,0,2,0,,,,,,,,,,,,,,,,,,,,,,,,,,,,,,,,,,,,,,,124.19421743741259,123.69607149623334,,,,,,,,,,,,,,,,,,,,,,,,,,,,,,,,,,,,,,,,,,,,,,,,,,,,,,,,,,,,,,,,,,,,,,,,,,,,,,,,,,,,,,,,,,,,,,,,,,,,,,,,,,,,,,,,,,,,,S6,001,2019_Nov_22_1139,test_final,3.2.4,60.02002121049636,
,,,,4,0,4,0,3,0,3,0,,,,,,,,,,,,,,,,,,,,,,,,,,,,,,,,,,,,,,,125.49250583583489,125.00099543714896,,,,,,,,,,,,,,,,,,,,,,,,,,,,,,,,,,,,,,,,,,,,,,,,,,,,,,,,,,,,,,,,,,,,,,,,,,,,,,,,,,,,,,,,,,,,,,,,,,,,,,,,,,,,,,,,,,,,,S6,001,2019_Nov_22_1139,test_final,3.2.4,60.02002121049636,
,,,,5,0,5,0,0,0,0,0,,,,,,,,,,,,,,,,,,,,,,,,,,,,,,,,,,,,,,,129.5543731530197,None,rnhk,"['r', 'n', 'h', 'k']","[0.6781754903495312, 1.003252184484154, 1.706258947495371, 1.8944427594542503, 2.2395258713513613]",126.77436088211834,None,126.77436088211834,None,1,RNHK,126.77436088211834,None,,,,,,,,,,,,,,,,,,,,,,,,,,,,,,,,,,,,,,,,,,,,,,,,,,,,,,,,,,,,,,,,,,,,,,,,,,,,,,,,,,,,,,,,,,,,,,,,,,,,,,,,,,S6,001,2019_Nov_22_1139,test_final,3.2.4,60.02002121049636,
,,,,5,0,5,0,1,0,1,0,,,,,,,,,,,,,,,,,,,,,,,,,,,,,,,,,,,,,,,130.83678039722145,130.35361150093377,,,,,,,,,,,,,,,,,,,,,,,,,,,,,,,,,,,,,,,,,,,,,,,,,,,,,,,,,,,,,,,,,,,,,,,,,,,,,,,,,,,,,,,,,,,,,,,,,,,,,,,,,,,,,,,,,,,,,S6,001,2019_Nov_22_1139,test_final,3.2.4,60.02002121049636,
,,,,5,0,5,0,2,0,2,0,,,,,,,,,,,,,,,,,,,,,,,,,,,,,,,,,,,,,,,132.13523664092645,131.65188649948686,,,,,,,,,,,,,,,,,,,,,,,,,,,,,,,,,,,,,,,,,,,,,,,,,,,,,,,,,,,,,,,,,,,,,,,,,,,,,,,,,,,,,,,,,,,,,,,,,,,,,,,,,,,,,,,,,,,,,S6,001,2019_Nov_22_1139,test_final,3.2.4,60.02002121049636,
,,,,5,0,5,0,3,0,3,0,,,,,,,,,,,,,,,,,,,,,,,,,,,,,,,,,,,,,,,133.41766151599586,132.93406842183322,,,,,,,,,,,,,,,,,,,,,,,,,,,,,,,,,,,,,,,,,,,,,,,,,,,,,,,,,,,,,,,,,,,,,,,,,,,,,,,,,,,,,,,,,,,,,,,,,,,,,,,,,,,,,,,,,,,,,S6,001,2019_Nov_22_1139,test_final,3.2.4,60.02002121049636,
,,,,6,0,6,0,0,0,0,0,,,,,,,,,,,,,,,,,,,,,,,,,,,,,,,,,,,,,,,138.12933700997382,None,tlnj,"['t', 'l', 'n', 'j']","[0.8789590047672391, 1.090287171304226, 1.366579688154161, 2.2976829553954303, 2.906845349352807]",134.6993878572248,None,134.6993878572248,None,1,TLNJ,134.6993878572248,None,,,,,,,,,,,,,,,,,,,,,,,,,,,,,,,,,,,,,,,,,,,,,,,,,,,,,,,,,,,,,,,,,,,,,,,,,,,,,,,,,,,,,,,,,,,,,,,,,,,,,,,,,,S6,001,2019_Nov_22_1139,test_final,3.2.4,60.02002121049636,
,,,,6,0,6,0,1,0,1,0,,,,,,,,,,,,,,,,,,,,,,,,,,,,,,,,,,,,,,,139.44378054514527,138.95081595517695,,,,,,,,,,,,,,,,,,,,,,,,,,,,,,,,,,,,,,,,,,,,,,,,,,,,,,,,,,,,,,,,,,,,,,,,,,,,,,,,,,,,,,,,,,,,,,,,,,,,,,,,,,,,,,,,,,,,,S6,001,2019_Nov_22_1139,test_final,3.2.4,60.02002121049636,
,,,,6,0,6,0,2,0,2,0,,,,,,,,,,,,,,,,,,,,,,,,,,,,,,,,,,,,,,,140.7424342543818,140.24792379233986,,,,,,,,,,,,,,,,,,,,,,,,,,,,,,,,,,,,,,,,,,,,,,,,,,,,,,,,,,,,,,,,,,,,,,,,,,,,,,,,,,,,,,,,,,,,,,,,,,,,,,,,,,,,,,,,,,,,,S6,001,2019_Nov_22_1139,test_final,3.2.4,60.02002121049636,
,,,,6,0,6,0,3,0,3,0,,,,,,,,,,,,,,,,,,,,,,,,,,,,,,,,,,,,,,,142.0245682206005,141.54148677317426,,,,,,,,,,,,,,,,,,,,,,,,,,,,,,,,,,,,,,,,,,,,,,,,,,,,,,,,,,,,,,,,,,,,,,,,,,,,,,,,,,,,,,,,,,,,,,,,,,,,,,,,,,,,,,,,,,,,,S6,001,2019_Nov_22_1139,test_final,3.2.4,60.02002121049636,
,,,,6,0,6,0,4,0,4,0,,,,,,,,,,,,,,,,,,,,,,,,,,,,,,,,,,,,,,,143.32275541778654,142.83944688504562,,,,,,,,,,,,,,,,,,,,,,,,,,,,,,,,,,,,,,,,,,,,,,,,,,,,,,,,,,,,,,,,,,,,,,,,,,,,,,,,,,,,,,,,,,,,,,,,,,,,,,,,,,,,,,,,,,,,,S6,001,2019_Nov_22_1139,test_final,3.2.4,60.02002121049636,
,,,,7,0,7,0,0,0,0,0,,,,,,,,,,,,,,,,,,,,,,,,,,,,,,,,,,,,,,,148.73381735850126,None,hxqtj,"['h', 'x', 'q', 't', 'j']","[0.512429388705641, 0.8751722536981106, 1.3863537311553955, 1.6491057639941573, 2.3866167832165956, 3.6125200111418962]",144.60501421010122,None,144.60501421010122,None,1,HXQTJ,144.60501421010122,None,,,,,,,,,,,,,,,,,,,,,,,,,,,,,,,,,,,,,,,,,,,,,,,,,,,,,,,,,,,,,,,,,,,,,,,,,,,,,,,,,,,,,,,,,,,,,,,,,,,,,,,,,,S6,001,2019_Nov_22_1139,test_final,3.2.4,60.02002121049636,
,,,,7,0,7,0,1,0,1,0,,,,,,,,,,,,,,,,,,,,,,,,,,,,,,,,,,,,,,,150.0327813704498,149.55401736265048,,,,,,,,,,,,,,,,,,,,,,,,,,,,,,,,,,,,,,,,,,,,,,,,,,,,,,,,,,,,,,,,,,,,,,,,,,,,,,,,,,,,,,,,,,,,,,,,,,,,,,,,,,,,,,,,,,,,,S6,001,2019_Nov_22_1139,test_final,3.2.4,60.02002121049636,
,,,,7,0,7,0,2,0,2,0,,,,,,,,,,,,,,,,,,,,,,,,,,,,,,,,,,,,,,,151.33129650121555,150.84778768243268,,,,,,,,,,,,,,,,,,,,,,,,,,,,,,,,,,,,,,,,,,,,,,,,,,,,,,,,,,,,,,,,,,,,,,,,,,,,,,,,,,,,,,,,,,,,,,,,,,,,,,,,,,,,,,,,,,,,,S6,001,2019_Nov_22_1139,test_final,3.2.4,60.02002121049636,
,,,,7,0,7,0,3,0,3,0,,,,,,,,,,,,,,,,,,,,,,,,,,,,,,,,,,,,,,,152.64665860356763,152.15022814273834,,,,,,,,,,,,,,,,,,,,,,,,,,,,,,,,,,,,,,,,,,,,,,,,,,,,,,,,,,,,,,,,,,,,,,,,,,,,,,,,,,,,,,,,,,,,,,,,,,,,,,,,,,,,,,,,,,,,,S6,001,2019_Nov_22_1139,test_final,3.2.4,60.02002121049636,
,,,,7,0,7,0,4,0,4,0,,,,,,,,,,,,,,,,,,,,,,,,,,,,,,,,,,,,,,,153.9446860649623,None,,,,,,,,,,,,,,,,,,,,,,,,,,,,,,,,,,,,,,,,,,,,,,,,,,,,,,,,,,,,,,,,,,,,,,,,,,,,,,,,,,,,,,,,,,,,,,,,,,,,,,,,,,,,,,,,,,,,,S6,001,2019_Nov_22_1139,test_final,3.2.4,60.02002121049636,
,,,,8,0,8,0,0,0,0,0,,,,,,,,,,,,,,,,,,,,,,,,,,,,,,,,,,,,,,,159.8050738023594,None,hrzsk,"['h', 'r', 'z', 's', 'k']","[0.46404825197532773, 1.4020906649529934, 2.274685994721949, 2.9293468832038343, 3.6382113159634173, 4.054800524841994]",155.2265372327529,None,155.2265372327529,None,0,RZJSV,155.2265372327529,None,,,,,,,,,,,,,,,,,,,,,,,,,,,,,,,,,,,,,,,,,,,,,,,,,,,,,,,,,,,,,,,,,,,,,,,,,,,,,,,,,,,,,,,,,,,,,,,,,,,,,,,,,,S6,001,2019_Nov_22_1139,test_final,3.2.4,60.02002121049636,
,,,,8,0,8,0,1,0,1,0,,,,,,,,,,,,,,,,,,,,,,,,,,,,,,,,,,,,,,,161.1208347142674,160.62172084022313,,,,,,,,,,,,,,,,,,,,,,,,,,,,,,,,,,,,,,,,,,,,,,,,,,,,,,,,,,,,,,,,,,,,,,,,,,,,,,,,,,,,,,,,,,,,,,,,,,,,,,,,,,,,,,,,,,,,,S6,001,2019_Nov_22_1139,test_final,3.2.4,60.02002121049636,
,,,,8,0,8,0,2,0,2,0,,,,,,,,,,,,,,,,,,,,,,,,,,,,,,,,,,,,,,,162.41912170220166,None,,,,,,,,,,,,,,,,,,,,,,,,,,,,,,,,,,,,,,,,,,,,,,,,,,,,,,,,,,,,,,,,,,,,,,,,,,,,,,,,,,,,,,,,,,,,,,,,,,,,,,,,,,,,,,,,,,,,,S6,001,2019_Nov_22_1139,test_final,3.2.4,60.02002121049636,
,,,,8,0,8,0,3,0,3,0,,,,,,,,,,,,,,,,,,,,,,,,,,,,,,,,,,,,,,,163.71769571956247,None,,,,,,,,,,,,,,,,,,,,,,,,,,,,,,,,,,,,,,,,,,,,,,,,,,,,,,,,,,,,,,,,,,,,,,,,,,,,,,,,,,,,,,,,,,,,,,,,,,,,,,,,,,,,,,,,,,,,,S6,001,2019_Nov_22_1139,test_final,3.2.4,60.02002121049636,
,,,,8,0,8,0,4,0,4,0,,,,,,,,,,,,,,,,,,,,,,,,,,,,,,,,,,,,,,,165.01649505971,None,,,,,,,,,,,,,,,,,,,,,,,,,,,,,,,,,,,,,,,,,,,,,,,,,,,,,,,,,,,,,,,,,,,,,,,,,,,,,,,,,,,,,,,,,,,,,,,,,,,,,,,,,,,,,,,,,,,,,S6,001,2019_Nov_22_1139,test_final,3.2.4,60.02002121049636,
,,,,9,0,9,0,0,0,0,0,,,,,,,,,,,,,,,,,,,,,,,,,,,,,,,,,,,,,,,172.14188981428742,None,rlxhs,"['r', 'l', 'x', 'h', 's']","[1.080698463600129, 1.4145881086587906, 2.8993800999596715, 3.206524820998311, 3.435930238571018, 5.2971667242236435]",166.3142862683162,None,166.3142862683162,None,1,RLXHS,166.3142862683162,None,,,,,,,,,,,,,,,,,,,,,,,,,,,,,,,,,,,,,,,,,,,,,,,,,,,,,,,,,,,,,,,,,,,,,,,,,,,,,,,,,,,,,,,,,,,,,,,,,,,,,,,,,,S6,001,2019_Nov_22_1139,test_final,3.2.4,60.02002121049636,
,,,,9,0,9,0,1,0,1,0,,,,,,,,,,,,,,,,,,,,,,,,,,,,,,,,,,,,,,,173.44007560098544,172.94139720872045,,,,,,,,,,,,,,,,,,,,,,,,,,,,,,,,,,,,,,,,,,,,,,,,,,,,,,,,,,,,,,,,,,,,,,,,,,,,,,,,,,,,,,,,,,,,,,,,,,,,,,,,,,,,,,,,,,,,,S6,001,2019_Nov_22_1139,test_final,3.2.4,60.02002121049636,
,,,,9,0,9,0,2,0,2,0,,,,,,,,,,,,,,,,,,,,,,,,,,,,,,,,,,,,,,,174.73820673208684,174.2397166369483,,,,,,,,,,,,,,,,,,,,,,,,,,,,,,,,,,,,,,,,,,,,,,,,,,,,,,,,,,,,,,,,,,,,,,,,,,,,,,,,,,,,,,,,,,,,,,,,,,,,,,,,,,,,,,,,,,,,,S6,001,2019_Nov_22_1139,test_final,3.2.4,60.02002121049636,
,,,,9,0,9,0,3,0,3,0,,,,,,,,,,,,,,,,,,,,,,,,,,,,,,,,,,,,,,,176.03715558163822,175.53739923983812,,,,,,,,,,,,,,,,,,,,,,,,,,,,,,,,,,,,,,,,,,,,,,,,,,,,,,,,,,,,,,,,,,,,,,,,,,,,,,,,,,,,,,,,,,,,,,,,,,,,,,,,,,,,,,,,,,,,,S6,001,2019_Nov_22_1139,test_final,3.2.4,60.02002121049636,
,,,,9,0,9,0,4,0,4,0,,,,,,,,,,,,,,,,,,,,,,,,,,,,,,,,,,,,,,,177.31908361939713,176.8358516045846,,,,,,,,,,,,,,,,,,,,,,,,,,,,,,,,,,,,,,,,,,,,,,,,,,,,,,,,,,,,,,,,,,,,,,,,,,,,,,,,,,,,,,,,,,,,,,,,,,,,,,,,,,,,,,,,,,,,,S6,001,2019_Nov_22_1139,test_final,3.2.4,60.02002121049636,
,,,,9,0,9,0,5,0,5,0,,,,,,,,,,,,,,,,,,,,,,,,,,,,,,,,,,,,,,,178.61768760951236,178.11931458348408,,,,,,,,,,,,,,,,,,,,,,,,,,,,,,,,,,,,,,,,,,,,,,,,,,,,,,,,,,,,,,,,,,,,,,,,,,,,,,,,,,,,,,,,,,,,,,,,,,,,,,,,,,,,,,,,,,,,,S6,001,2019_Nov_22_1139,test_final,3.2.4,60.02002121049636,
,,,,10,0,10,0,0,0,0,0,,,,,,,,,,,,,,,,,,,,,,,,,,,,,,,,,,,,,,,184.14494664873928,None,lkzrth,"['l', 'k', 'z', 'r', 't', 'h']","[1.0162538699805737, 1.6886175307445228, 2.2641043183393776, 2.704474707134068, 3.058386637363583, 3.3190180328674614, 3.699419592972845]",179.89988328376785,None,179.89988328376785,None,1,LKZRTH,179.89988328376785,None,,,,,,,,,,,,,,,,,,,,,,,,,,,,,,,,,,,,,,,,,,,,,,,,,,,,,,,,,,,,,,,,,,,,,,,,,,,,,,,,,,,,,,,,,,,,,,,,,,,,,,,,,,S6,001,2019_Nov_22_1139,test_final,3.2.4,60.02002121049636,
,,,,10,0,10,0,1,0,1,0,,,,,,,,,,,,,,,,,,,,,,,,,,,,,,,,,,,,,,,185.4434515540488,None,,,,,,,,,,,,,,,,,,,,,,,,,,,,,,,,,,,,,,,,,,,,,,,,,,,,,,,,,,,,,,,,,,,,,,,,,,,,,,,,,,,,,,,,,,,,,,,,,,,,,,,,,,,,,,,,,,,,,S6,001,2019_Nov_22_1139,test_final,3.2.4,60.02002121049636,
,,,,10,0,10,0,2,0,2,0,,,,,,,,,,,,,,,,,,,,,,,,,,,,,,,,,,,,,,,186.72549137147143,186.24225724069402,,,,,,,,,,,,,,,,,,,,,,,,,,,,,,,,,,,,,,,,,,,,,,,,,,,,,,,,,,,,,,,,,,,,,,,,,,,,,,,,,,,,,,,,,,,,,,,,,,,,,,,,,,,,,,,,,,,,,S6,001,2019_Nov_22_1139,test_final,3.2.4,60.02002121049636,
,,,,10,0,10,0,3,0,3,0,,,,,,,,,,,,,,,,,,,,,,,,,,,,,,,,,,,,,,,188.0242716697976,187.54072476830333,,,,,,,,,,,,,,,,,,,,,,,,,,,,,,,,,,,,,,,,,,,,,,,,,,,,,,,,,,,,,,,,,,,,,,,,,,,,,,,,,,,,,,,,,,,,,,,,,,,,,,,,,,,,,,,,,,,,,S6,001,2019_Nov_22_1139,test_final,3.2.4,60.02002121049636,
,,,,10,0,10,0,4,0,4,0,,,,,,,,,,,,,,,,,,,,,,,,,,,,,,,,,,,,,,,189.32254525832832,188.8236616430804,,,,,,,,,,,,,,,,,,,,,,,,,,,,,,,,,,,,,,,,,,,,,,,,,,,,,,,,,,,,,,,,,,,,,,,,,,,,,,,,,,,,,,,,,,,,,,,,,,,,,,,,,,,,,,,,,,,,,S6,001,2019_Nov_22_1139,test_final,3.2.4,60.02002121049636,
,,,,10,0,10,0,5,0,5,0,,,,,,,,,,,,,,,,,,,,,,,,,,,,,,,,,,,,,,,190.60497612785548,190.12045424059033,,,,,,,,,,,,,,,,,,,,,,,,,,,,,,,,,,,,,,,,,,,,,,,,,,,,,,,,,,,,,,,,,,,,,,,,,,,,,,,,,,,,,,,,,,,,,,,,,,,,,,,,,,,,,,,,,,,,,S6,001,2019_Nov_22_1139,test_final,3.2.4,60.02002121049636,
,,,,11,0,11,0,0,0,0,0,,,,,,,,,,,,,,,,,,,,,,,,,,,,,,,,,,,,,,,197.44742342922837,None,vtnjzl,"['v', 't', 'n', 'j', 'z', 'l']","[2.049674534704536, 2.429108866956085, 3.557585491798818, 3.849295471329242, 4.1830810946412385, 4.416503875050694, 4.999250689055771]",191.9029397657141,None,191.9029397657141,None,0,VTNJKZ,191.9029397657141,None,,,,,,,,,,,,,,,,,,,,,,,,,,,,,,,,,,,,,,,,,,,,,,,,,,,,,,,,,,,,,,,,,,,,,,,,,,,,,,,,,,,,,,,,,,,,,,,,,,,,,,,,,,S6,001,2019_Nov_22_1139,test_final,3.2.4,60.02002121049636,
,,,,11,0,11,0,1,0,1,0,,,,,,,,,,,,,,,,,,,,,,,,,,,,,,,,,,,,,,,198.74673900008202,None,,,,,,,,,,,,,,,,,,,,,,,,,,,,,,,,,,,,,,,,,,,,,,,,,,,,,,,,,,,,,,,,,,,,,,,,,,,,,,,,,,,,,,,,,,,,,,,,,,,,,,,,,,,,,,,,,,,,,S6,001,2019_Nov_22_1139,test_final,3.2.4,60.02002121049636,
,,,,11,0,11,0,2,0,2,0,,,,,,,,,,,,,,,,,,,,,,,,,,,,,,,,,,,,,,,200.04456053348258,None,,,,,,,,,,,,,,,,,,,,,,,,,,,,,,,,,,,,,,,,,,,,,,,,,,,,,,,,,,,,,,,,,,,,,,,,,,,,,,,,,,,,,,,,,,,,,,,,,,,,,,,,,,,,,,,,,,,,,S6,001,2019_Nov_22_1139,test_final,3.2.4,60.02002121049636,
,,,,11,0,11,0,3,0,3,0,,,,,,,,,,,,,,,,,,,,,,,,,,,,,,,,,,,,,,,201.3431088104844,200.84423929965124,,,,,,,,,,,,,,,,,,,,,,,,,,,,,,,,,,,,,,,,,,,,,,,,,,,,,,,,,,,,,,,,,,,,,,,,,,,,,,,,,,,,,,,,,,,,,,,,,,,,,,,,,,,,,,,,,,,,,S6,001,2019_Nov_22_1139,test_final,3.2.4,60.02002121049636,
,,,,11,0,11,0,4,0,4,0,,,,,,,,,,,,,,,,,,,,,,,,,,,,,,,,,,,,,,,202.64171914756298,None,,,,,,,,,,,,,,,,,,,,,,,,,,,,,,,,,,,,,,,,,,,,,,,,,,,,,,,,,,,,,,,,,,,,,,,,,,,,,,,,,,,,,,,,,,,,,,,,,,,,,,,,,,,,,,,,,,,,,S6,001,2019_Nov_22_1139,test_final,3.2.4,60.02002121049636,
,,,,11,0,11,0,5,0,5,0,,,,,,,,,,,,,,,,,,,,,,,,,,,,,,,,,,,,,,,203.9405005038716,None,,,,,,,,,,,,,,,,,,,,,,,,,,,,,,,,,,,,,,,,,,,,,,,,,,,,,,,,,,,,,,,,,,,,,,,,,,,,,,,,,,,,,,,,,,,,,,,,,,,,,,,,,,,,,,,,,,,,,S6,001,2019_Nov_22_1139,test_final,3.2.4,60.02002121049636,
,,,,12,0,12,0,0,0,0,0,,,,,,,,,,,,,,,,,,,,,,,,,,,,,,,,,,,,,,,209.833387165796,None,vqnkxl,"['v', 'q', 'n', 'k', 'x', 'l']","[1.1896193148568273, 1.6788846026174724, 2.169442935846746, 2.5425418028607965, 3.2570396410301328, 3.663694577291608, 4.061929025221616]",205.23846414219588,None,205.23846414219588,None,0,VQRNXJ,205.23846414219588,None,,,,,,,,,,,,,,,,,,,,,,,,,,,,,,,,,,,,,,,,,,,,,,,,,,,,,,,,,,,,,,,,,,,,,,,,,,,,,,,,,,,,,,,,,,,,,,,,,,,,,,,,,,S6,001,2019_Nov_22_1139,test_final,3.2.4,60.02002121049636,
,,,,12,0,12,0,1,0,1,0,,,,,,,,,,,,,,,,,,,,,,,,,,,,,,,,,,,,,,,211.1321152774617,None,,,,,,,,,,,,,,,,,,,,,,,,,,,,,,,,,,,,,,,,,,,,,,,,,,,,,,,,,,,,,,,,,,,,,,,,,,,,,,,,,,,,,,,,,,,,,,,,,,,,,,,,,,,,,,,,,,,,,S6,001,2019_Nov_22_1139,test_final,3.2.4,60.02002121049636,
,,,,12,0,12,0,2,0,2,0,,,,,,,,,,,,,,,,,,,,,,,,,,,,,,,,,,,,,,,212.42988039227203,None,,,,,,,,,,,,,,,,,,,,,,,,,,,,,,,,,,,,,,,,,,,,,,,,,,,,,,,,,,,,,,,,,,,,,,,,,,,,,,,,,,,,,,,,,,,,,,,,,,,,,,,,,,,,,,,,,,,,,S6,001,2019_Nov_22_1139,test_final,3.2.4,60.02002121049636,
,,,,12,0,12,0,3,0,3,0,,,,,,,,,,,,,,,,,,,,,,,,,,,,,,,,,,,,,,,213.7122851680033,213.2290425747633,,,,,,,,,,,,,,,,,,,,,,,,,,,,,,,,,,,,,,,,,,,,,,,,,,,,,,,,,,,,,,,,,,,,,,,,,,,,,,,,,,,,,,,,,,,,,,,,,,,,,,,,,,,,,,,,,,,,,S6,001,2019_Nov_22_1139,test_final,3.2.4,60.02002121049636,
,,,,12,0,12,0,4,0,4,0,,,,,,,,,,,,,,,,,,,,,,,,,,,,,,,,,,,,,,,215.01110143354163,214.51105700386688,,,,,,,,,,,,,,,,,,,,,,,,,,,,,,,,,,,,,,,,,,,,,,,,,,,,,,,,,,,,,,,,,,,,,,,,,,,,,,,,,,,,,,,,,,,,,,,,,,,,,,,,,,,,,,,,,,,,,S6,001,2019_Nov_22_1139,test_final,3.2.4,60.02002121049636,
,,,,12,0,12,0,5,0,5,0,,,,,,,,,,,,,,,,,,,,,,,,,,,,,,,,,,,,,,,216.32617791602388,215.82628546422347,,,,,,,,,,,,,,,,,,,,,,,,,,,,,,,,,,,,,,,,,,,,,,,,,,,,,,,,,,,,,,,,,,,,,,,,,,,,,,,,,,,,,,,,,,,,,,,,,,,,,,,,,,,,,,,,,,,,,S6,001,2019_Nov_22_1139,test_final,3.2.4,60.02002121049636,
,,,,13,0,13,0,0,0,0,0,,,,,,,,,,,,,,,,,,,,,,,,,,,,,,,,,,,,,,,223.1853865031153,None,ljhznr,"['l', 'j', 'h', 'z', 'n', 'r']","[1.3951924229040742, 1.764803557191044, 2.284727462567389, 3.430940710939467, 3.910755163989961, 4.903185892384499, 5.044483663048595]",217.60885244375095,None,217.60885244375095,None,1,LJHZNR,217.60885244375095,None,,,,,,,,,,,,,,,,,,,,,,,,,,,,,,,,,,,,,,,,,,,,,,,,,,,,,,,,,,,,,,,,,,,,,,,,,,,,,,,,,,,,,,,,,,,,,,,,,,,,,,,,,,S6,001,2019_Nov_22_1139,test_final,3.2.4,60.02002121049636,
,,,,13,0,13,0,1,0,1,0,,,,,,,,,,,,,,,,,,,,,,,,,,,,,,,,,,,,,,,224.48371474677697,223.98413753462955,,,,,,,,,,,,,,,,,,,,,,,,,,,,,,,,,,,,,,,,,,,,,,,,,,,,,,,,,,,,,,,,,,,,,,,,,,,,,,,,,,,,,,,,,,,,,,,,,,,,,,,,,,,,,,,,,,,,,S6,001,2019_Nov_22_1139,test_final,3.2.4,60.02002121049636,
,,,,13,0,13,0,2,0,2,0,,,,,,,,,,,,,,,,,,,,,,,,,,,,,,,,,,,,,,,225.78237409796566,225.28204686986282,,,,,,,,,,,,,,,,,,,,,,,,,,,,,,,,,,,,,,,,,,,,,,,,,,,,,,,,,,,,,,,,,,,,,,,,,,,,,,,,,,,,,,,,,,,,,,,,,,,,,,,,,,,,,,,,,,,,,S6,001,2019_Nov_22_1139,test_final,3.2.4,60.02002121049636,
,,,,13,0,13,0,3,0,3,0,,,,,,,,,,,,,,,,,,,,,,,,,,,,,,,,,,,,,,,227.08072878839448,None,,,,,,,,,,,,,,,,,,,,,,,,,,,,,,,,,,,,,,,,,,,,,,,,,,,,,,,,,,,,,,,,,,,,,,,,,,,,,,,,,,,,,,,,,,,,,,,,,,,,,,,,,,,,,,,,,,,,,S6,001,2019_Nov_22_1139,test_final,3.2.4,60.02002121049636,
,,,,13,0,13,0,4,0,4,0,,,,,,,,,,,,,,,,,,,,,,,,,,,,,,,,,,,,,,,228.3791945525445,227.87978659616783,,,,,,,,,,,,,,,,,,,,,,,,,,,,,,,,,,,,,,,,,,,,,,,,,,,,,,,,,,,,,,,,,,,,,,,,,,,,,,,,,,,,,,,,,,,,,,,,,,,,,,,,,,,,,,,,,,,,,S6,001,2019_Nov_22_1139,test_final,3.2.4,60.02002121049636,
,,,,13,0,13,0,5,0,5,0,,,,,,,,,,,,,,,,,,,,,,,,,,,,,,,,,,,,,,,229.67865258082747,229.17876823898405,,,,,,,,,,,,,,,,,,,,,,,,,,,,,,,,,,,,,,,,,,,,,,,,,,,,,,,,,,,,,,,,,,,,,,,,,,,,,,,,,,,,,,,,,,,,,,,,,,,,,,,,,,,,,,,,,,,,,S6,001,2019_Nov_22_1139,test_final,3.2.4,60.02002121049636,
,,,,13,0,13,0,6,0,6,0,,,,,,,,,,,,,,,,,,,,,,,,,,,,,,,,,,,,,,,230.9770319540985,None,,,,,,,,,,,,,,,,,,,,,,,,,,,,,,,,,,,,,,,,,,,,,,,,,,,,,,,,,,,,,,,,,,,,,,,,,,,,,,,,,,,,,,,,,,,,,,,,,,,,,,,,,,,,,,,,,,,,,S6,001,2019_Nov_22_1139,test_final,3.2.4,60.02002121049636,
,,,,14,0,14,0,0,0,0,0,,,,,,,,,,,,,,,,,,,,,,,,,,,,,,,,,,,,,,,239.30135052185506,None,kzrnlhs,"['k', 'z', 'r', 'n', 'l', 'h', 's']","[0.5947068696841598, 0.815884327981621, 1.2683089207857847, 1.5810211077332497, 2.902647799346596, 3.8580297892913222, 4.744850385002792, 5.124437047634274, 5.324511096812785, 6.5036739143542945]",232.25877698371187,None,232.25877698371187,None,0,KZRNQHS,232.25877698371187,None,,,,,,,,,,,,,,,,,,,,,,,,,,,,,,,,,,,,,,,,,,,,,,,,,,,,,,,,,,,,,,,,,,,,,,,,,,,,,,,,,,,,,,,,,,,,,,,,,,,,,,,,,,S6,001,2019_Nov_22_1139,test_final,3.2.4,60.02002121049636,
,,,,14,0,14,0,1,0,1,0,,,,,,,,,,,,,,,,,,,,,,,,,,,,,,,,,,,,,,,240.599917487707,None,,,,,,,,,,,,,,,,,,,,,,,,,,,,,,,,,,,,,,,,,,,,,,,,,,,,,,,,,,,,,,,,,,,,,,,,,,,,,,,,,,,,,,,,,,,,,,,,,,,,,,,,,,,,,,,,,,,,,S6,001,2019_Nov_22_1139,test_final,3.2.4,60.02002121049636,
,,,,14,0,14,0,2,0,2,0,,,,,,,,,,,,,,,,,,,,,,,,,,,,,,,,,,,,,,,241.8981970702298,None,,,,,,,,,,,,,,,,,,,,,,,,,,,,,,,,,,,,,,,,,,,,,,,,,,,,,,,,,,,,,,,,,,,,,,,,,,,,,,,,,,,,,,,,,,,,,,,,,,,,,,,,,,,,,,,,,,,,,S6,001,2019_Nov_22_1139,test_final,3.2.4,60.02002121049636,
,,,,14,0,14,0,3,0,3,0,,,,,,,,,,,,,,,,,,,,,,,,,,,,,,,,,,,,,,,243.19612438883632,None,,,,,,,,,,,,,,,,,,,,,,,,,,,,,,,,,,,,,,,,,,,,,,,,,,,,,,,,,,,,,,,,,,,,,,,,,,,,,,,,,,,,,,,,,,,,,,,,,,,,,,,,,,,,,,,,,,,,,S6,001,2019_Nov_22_1139,test_final,3.2.4,60.02002121049636,
,,,,14,0,14,0,4,0,4,0,,,,,,,,,,,,,,,,,,,,,,,,,,,,,,,,,,,,,,,244.49574920488521,243.99549955222756,,,,,,,,,,,,,,,,,,,,,,,,,,,,,,,,,,,,,,,,,,,,,,,,,,,,,,,,,,,,,,,,,,,,,,,,,,,,,,,,,,,,,,,,,,,,,,,,,,,,,,,,,,,,,,,,,,,,,S6,001,2019_Nov_22_1139,test_final,3.2.4,60.02002121049636,
,,,,14,0,14,0,5,0,5,0,,,,,,,,,,,,,,,,,,,,,,,,,,,,,,,,,,,,,,,245.79435989446938,None,,,,,,,,,,,,,,,,,,,,,,,,,,,,,,,,,,,,,,,,,,,,,,,,,,,,,,,,,,,,,,,,,,,,,,,,,,,,,,,,,,,,,,,,,,,,,,,,,,,,,,,,,,,,,,,,,,,,,S6,001,2019_Nov_22_1139,test_final,3.2.4,60.02002121049636,
,,,,14,0,14,0,6,0,6,0,,,,,,,,,,,,,,,,,,,,,,,,,,,,,,,,,,,,,,,247.09239229327068,None,,,,,,,,,,,,,,,,,,,,,,,,,,,,,,,,,,,,,,,,,,,,,,,,,,,,,,,,,,,,,,,,,,,,,,,,,,,,,,,,,,,,,,,,,,,,,,,,,,,,,,,,,,,,,,,,,,,,,S6,001,2019_Nov_22_1139,test_final,3.2.4,60.02002121049636,
,,,,15,0,15,0,0,0,0,0,,,,,,,,,,,,,,,,,,,,,,,,,,,,,,,,,,,,,,,256.08245625765994,None,hnlxrkh,"['h', 'n', 'l', 'x', 'r', 'k', 'h']","[2.144209680147469, 2.429359930101782, 3.131867035292089, 4.500494015868753, 5.288569222204387, 5.530329273547977, 6.724829156883061, 7.170717292930931]",248.39111053105444,None,248.39111053105444,None,0,HRXVLZK,248.39111053105444,None,,,,,,,,,,,,,,,,,,,,,,,,,,,,,,,,,,,,,,,,,,,,,,,,,,,,,,,,,,,,,,,,,,,,,,,,,,,,,,,,,,,,,,,,,,,,,,,,,,,,,,,,,,S6,001,2019_Nov_22_1139,test_final,3.2.4,60.02002121049636,
,,,,15,0,15,0,1,0,1,0,,,,,,,,,,,,,,,,,,,,,,,,,,,,,,,,,,,,,,,257.397725621704,256.8977802773006,,,,,,,,,,,,,,,,,,,,,,,,,,,,,,,,,,,,,,,,,,,,,,,,,,,,,,,,,,,,,,,,,,,,,,,,,,,,,,,,,,,,,,,,,,,,,,,,,,,,,,,,,,,,,,,,,,,,,S6,001,2019_Nov_22_1139,test_final,3.2.4,60.02002121049636,
,,,,15,0,15,0,2,0,2,0,,,,,,,,,,,,,,,,,,,,,,,,,,,,,,,,,,,,,,,258.69655317114666,258.1970715178177,,,,,,,,,,,,,,,,,,,,,,,,,,,,,,,,,,,,,,,,,,,,,,,,,,,,,,,,,,,,,,,,,,,,,,,,,,,,,,,,,,,,,,,,,,,,,,,,,,,,,,,,,,,,,,,,,,,,,S6,001,2019_Nov_22_1139,test_final,3.2.4,60.02002121049636,
,,,,15,0,15,0,3,0,3,0,,,,,,,,,,,,,,,,,,,,,,,,,,,,,,,,,,,,,,,260.01147661777213,None,,,,,,,,,,,,,,,,,,,,,,,,,,,,,,,,,,,,,,,,,,,,,,,,,,,,,,,,,,,,,,,,,,,,,,,,,,,,,,,,,,,,,,,,,,,,,,,,,,,,,,,,,,,,,,,,,,,,,S6,001,2019_Nov_22_1139,test_final,3.2.4,60.02002121049636,
,,,,15,0,15,0,4,0,4,0,,,,,,,,,,,,,,,,,,,,,,,,,,,,,,,,,,,,,,,261.2938905619085,None,,,,,,,,,,,,,,,,,,,,,,,,,,,,,,,,,,,,,,,,,,,,,,,,,,,,,,,,,,,,,,,,,,,,,,,,,,,,,,,,,,,,,,,,,,,,,,,,,,,,,,,,,,,,,,,,,,,,,S6,001,2019_Nov_22_1139,test_final,3.2.4,60.02002121049636,
,,,,15,0,15,0,5,0,5,0,,,,,,,,,,,,,,,,,,,,,,,,,,,,,,,,,,,,,,,262.59228298207745,262.0932625513524,,,,,,,,,,,,,,,,,,,,,,,,,,,,,,,,,,,,,,,,,,,,,,,,,,,,,,,,,,,,,,,,,,,,,,,,,,,,,,,,,,,,,,,,,,,,,,,,,,,,,,,,,,,,,,,,,,,,,S6,001,2019_Nov_22_1139,test_final,3.2.4,60.02002121049636,
,,,,15,0,15,0,6,0,6,0,,,,,,,,,,,,,,,,,,,,,,,,,,,,,,,,,,,,,,,263.890621451661,None,,,,,,,,,,,,,,,,,,,,,,,,,,,,,,,,,,,,,,,,,,,,,,,,,,,,,,,,,,,,,,,,,,,,,,,,,,,,,,,,,,,,,,,,,,,,,,,,,,,,,,,,,,,,,,,,,,,,,S6,001,2019_Nov_22_1139,test_final,3.2.4,60.02002121049636,
,,,,,,,,,,,,,,,,,,,,,,,,,,,,,,,,,,,,,,,,,,,,,,,,,,,,xvklqtz,"['x', 'v', 'k', 'l', 'q', 't', 'z']","[3.137831195257604, 3.59537260979414, 4.3237367500551045, 4.756734274793416, 6.767151279374957, 7.24231260176748, 8.526954730972648, 8.763872648589313]",265.1889701471664,None,265.1889701471664,None,0,XVKQTNJ,265.1889701471664,None,274.4793722713366,None,space,19.821816752199084,274.4793722713366,None,,,,,,,,,,,,,,,,,,,,,,,,,,,,,,,,,,,,,,,,,,,,,,,,,,,,,,,,,,,,,,,,,,,,,,,,,,,,,,,,,,,,,,,,,,,,,,,,,,,,S6,001,2019_Nov_22_1139,test_final,3.2.4,60.02002121049636,
Practice,2,(1/1) - 1,0,,,,,,,,,0,0,0,0,0,0,0,1,,,,,,,,,,,,,,,,,,,,,,,,,,,,,,,,,,,,,,,,,,,,,,,,,,0,294.92251493316144,None,['0'],0,[2.6585488407872617],294.92251493316144,None,294.92251493316144,None,[2.6585488407872617],294.92251493316144,None,298.11984350858256,None,,,,,,,,,,,,,,,,,,,,,,,,,,,,,,,,,,,,,,,,,,,,,,,,,,,,,,,,,,,,,,,,,,,,,,,,,,,,,,,,,,,,,S6,001,2019_Nov_22_1139,test_final,3.2.4,60.02002121049636,
Practice,7,(4x6) - 17,7,,,,,,,,,0,0,0,0,0,1,1,6,,,,,,,,,,,,,,,,,,,,,,,,,,,,,,,,,,,,,,,,,,,,,,,,,,7,299.61778387380764,None,['7'],0,[5.373961719684303],299.61778387380764,None,299.61778387380764,None,"[2.6585488407872617, 5.373961719684303]",299.61778387380764,None,305.52790150698274,None,,,,,,,,,,,,,,,,,,,,,,,,,,,,,,,,,,,,,,,,,,,,,,,,,,,,,,,,,,,,,,,,,,,,,,,,,,,,,,,,,,,,,S6,001,2019_Nov_22_1139,test_final,3.2.4,60.02002121049636,
Practice,8,(3/3) + 5,6,,,,,,,,,0,0,0,0,0,2,2,7,,,,,,,,,,,,,,,,,,,,,,,,,,,,,,,,,,,,,,,,,,,,,,,,,,6,307.0264593041502,None,['6'],0,[2.777143028564751],307.0264593041502,None,307.0264593041502,None,"[2.6585488407872617, 5.373961719684303, 2.777143028564751]",307.0264593041502,None,310.33911859896034,None,,,,,,,,,,,,,,,,,,,,,,,,,,,,,,,,,,,,,,,,,,,,,,,,,,,,,,,,,,,,,,,,,,,,,,,,,,,,,,,,,,,,,S6,001,2019_Nov_22_1139,test_final,3.2.4,60.02002121049636,
Practice,14,(6/3) + 4 ,6,,,,,,,,,0,0,0,0,0,3,3,13,,,,,,,,,,,,,,,,,,,,,,,,,,,,,,,,,,,,,,,,,,,,,,,,,,6,311.8213749229908,None,['6'],0,[1.955818529240787],311.8213749229908,None,311.8213749229908,None,"[2.6585488407872617, 5.373961719684303, 2.777143028564751, 1.955818529240787]",311.8213749229908,None,314.31882973527536,None,,,,,,,,,,,,,,,,,,,,,,,,,,,,,,,,,,,,,,,,,,,,,,,,,,,,,,,,,,,,,,,,,,,,,,,,,,,,,,,,,,,,,S6,001,2019_Nov_22_1139,test_final,3.2.4,60.02002121049636,
Practice,10,(8/4) + 3,5,,,,,,,,,0,0,0,0,0,4,4,9,,,,,,,,,,,,,,,,,,,,,,,,,,,,,,,,,,,,,,,,,,,,,,,,,,5,315.7997834929265,None,['5'],0,[1.9148437553085387],315.7997834929265,None,315.7997834929265,None,"[2.6585488407872617, 5.373961719684303, 2.777143028564751, 1.955818529240787, 1.9148437553085387]",315.7997834929265,None,318.2304914770648,None,,,,,,,,,,,,,,,,,,,,,,,,,,,,,,,,,,,,,,,,,,,,,,,,,,,,,,,,,,,,,,,,,,,,,,,,,,,,,,,,,,,,,S6,001,2019_Nov_22_1139,test_final,3.2.4,60.02002121049636,
Practice,15,(9/3) - 2,1,,,,,,,,,0,0,0,0,0,5,5,14,,,,,,,,,,,,,,,,,,,,,,,,,,,,,,,,,,,,,,,,,,,,,,,,,,1,319.7288891864009,None,['1'],0,[2.727333794347942],319.7288891864009,None,319.7288891864009,None,"[2.6585488407872617, 5.373961719684303, 2.777143028564751, 1.955818529240787, 1.9148437553085387, 2.727333794347942]",319.7288891864009,None,322.975823183544,None,,,,,,,,,,,,,,,,,,,,,,,,,,,,,,,,,,,,,,,,,,,,,,,,,,,,,,,,,,,,,,,,,,,,,,,,,,,,,,,,,,,,,S6,001,2019_Nov_22_1139,test_final,3.2.4,60.02002121049636,
Practice,11,(5x3) - 7,8,,,,,,,,,0,0,0,0,0,6,6,10,,,,,,,,,,,,,,,,,,,,,,,,,,,,,,,,,,,,,,,,,,,,,,,,,,8,324.4910720959306,None,['8'],0,[3.5701386486180127],324.4910720959306,None,324.4910720959306,None,"[2.6585488407872617, 5.373961719684303, 2.777143028564751, 1.955818529240787, 1.9148437553085387, 2.727333794347942, 3.5701386486180127]",324.4910720959306,None,328.58663229830563,None,,,,,,,,,,,,,,,,,,,,,,,,,,,,,,,,,,,,,,,,,,,,,,,,,,,,,,,,,,,,,,,,,,,,,,,,,,,,,,,,,,,,,S6,001,2019_Nov_22_1139,test_final,3.2.4,60.02002121049636,
Practice,5,(3/3) + 2,3,,,,,,,,,0,0,0,0,0,7,7,4,,,,,,,,,,,,,,,,,,,,,,,,,,,,,,,,,,,,,,,,,,,,,,,,,,3,330.10089176753536,None,['3'],0,[1.7517225332558155],330.10089176753536,None,330.10089176753536,None,"[2.6585488407872617, 5.373961719684303, 2.777143028564751, 1.955818529240787, 1.9148437553085387, 2.727333794347942, 3.5701386486180127, 1.7517225332558155]",330.10089176753536,None,332.3825176130049,None,,,,,,,,,,,,,,,,,,,,,,,,,,,,,,,,,,,,,,,,,,,,,,,,,,,,,,,,,,,,,,,,,,,,,,,,,,,,,,,,,,,,,S6,001,2019_Nov_22_1139,test_final,3.2.4,60.02002121049636,
Practice,1,(1x2) + 1,3,,,,,,,,,0,0,0,0,0,8,8,0,,,,,,,,,,,,,,,,,,,,,,,,,,,,,,,,,,,,,,,,,,,,,,,,,,3,333.89679541857913,None,['3'],0,[1.5948810623958707],333.89679541857913,None,333.89679541857913,None,"[2.6585488407872617, 5.373961719684303, 2.777143028564751, 1.955818529240787, 1.9148437553085387, 2.727333794347942, 3.5701386486180127, 1.7517225332558155, 1.5948810623958707]",333.89679541857913,None,336.01143077760935,None,,,,,,,,,,,,,,,,,,,,,,,,,,,,,,,,,,,,,,,,,,,,,,,,,,,,,,,,,,,,,,,,,,,,,,,,,,,,,,,,,,,,,S6,001,2019_Nov_22_1139,test_final,3.2.4,60.02002121049636,
Practice,9,(4/2) + 5,7,,,,,,,,,0,0,0,0,0,9,9,8,,,,,,,,,,,,,,,,,,,,,,,,,,,,,,,,,,,,,,,,,,,,,,,,,,7,337.5269205272198,None,['7'],0,[2.1198167097754776],337.5269205272198,None,337.5269205272198,None,"[2.6585488407872617, 5.373961719684303, 2.777143028564751, 1.955818529240787, 1.9148437553085387, 2.727333794347942, 3.5701386486180127, 1.7517225332558155, 1.5948810623958707, 2.1198167097754776]",337.5269205272198,None,340.17381996801123,None,,,,,,,,,,,,,,,,,,,,,,,,,,,,,,,,,,,,,,,,,,,,,,,,,,,,,,,,,,,,,,,,,,,,,,,,,,,,,,,,,,,,,S6,001,2019_Nov_22_1139,test_final,3.2.4,60.02002121049636,
Practice,3,(7x2) - 5,9,,,,,,,,,0,0,0,0,0,10,10,2,,,,,,,,,,,,,,,,,,,,,,,,,,,,,,,,,,,,,,,,,,,,,,,,,,1,341.70446165977046,None,['1'],0,[1.7772967694327235],341.70446165977046,None,341.70446165977046,None,"[2.6585488407872617, 5.373961719684303, 2.777143028564751, 1.955818529240787, 1.9148437553085387, 2.727333794347942, 3.5701386486180127, 1.7517225332558155, 1.5948810623958707, 2.1198167097754776, 1.7772967694327235]",341.70446165977046,None,344.0191308702342,None,,,,,,,,,,,,,,,,,,,,,,,,,,,,,,,,,,,,,,,,,,,,,,,,,,,,,,,,,,,,,,,,,,,,,,,,,,,,,,,,,,,,,S6,001,2019_Nov_22_1139,test_final,3.2.4,60.02002121049636,
Practice,6,(2x6) - 8,4,,,,,,,,,0,0,0,0,0,11,11,5,,,,,,,,,,,,,,,,,,,,,,,,,,,,,,,,,,,,,,,,,,,,,,,,,,4,345.51726658502594,None,['4'],0,[2.8176555214449763],345.51726658502594,None,345.51726658502594,None,"[2.6585488407872617, 5.373961719684303, 2.777143028564751, 1.955818529240787, 1.9148437553085387, 2.727333794347942, 3.5701386486180127, 1.7517225332558155, 1.5948810623958707, 2.1198167097754776, 1.7772967694327235, 2.8176555214449763]",345.51726658502594,None,348.864279568661,None,,,,,,,,,,,,,,,,,,,,,,,,,,,,,,,,,,,,,,,,,,,,,,,,,,,,,,,,,,,,,,,,,,,,,,,,,,,,,,,,,,,,,S6,001,2019_Nov_22_1139,test_final,3.2.4,60.02002121049636,
Practice,13,(3x8) - 19 ,5,,,,,,,,,0,0,0,0,0,12,12,12,,,,,,,,,,,,,,,,,,,,,,,,,,,,,,,,,,,,,,,,,,,,,,,,,,5,350.37925520259887,None,['5'],0,[2.8731535226106644],350.37925520259887,None,350.37925520259887,None,"[2.6585488407872617, 5.373961719684303, 2.777143028564751, 1.955818529240787, 1.9148437553085387, 2.727333794347942, 3.5701386486180127, 1.7517225332558155, 1.5948810623958707, 2.1198167097754776, 1.7772967694327235, 2.8176555214449763, 2.8731535226106644]",350.37925520259887,None,353.7921690866351,None,,,,,,,,,,,,,,,,,,,,,,,,,,,,,,,,,,,,,,,,,,,,,,,,,,,,,,,,,,,,,,,,,,,,,,,,,,,,,,,,,,,,,S6,001,2019_Nov_22_1139,test_final,3.2.4,60.02002121049636,
Practice,4,(4x4) - 14,2,,,,,,,,,0,0,0,0,0,13,13,3,,,,,,,,,,,,,,,,,,,,,,,,,,,,,,,,,,,,,,,,,,,,,,,,,,2,355.29014154011384,None,['2'],0,[1.737465531565249],355.29014154011384,None,355.29014154011384,None,"[2.6585488407872617, 5.373961719684303, 2.777143028564751, 1.955818529240787, 1.9148437553085387, 2.727333794347942, 3.5701386486180127, 1.7517225332558155, 1.5948810623958707, 2.1198167097754776, 1.7772967694327235, 2.8176555214449763, 2.8731535226106644, 1.737465531565249]",355.29014154011384,None,357.5704584722407,None,,,,,,,,,,,,,,,,,,,,,,,,,,,,,,,,,,,,,,,,,,,,,,,,,,,,,,,,,,,,,,,,,,,,,,,,,,,,,,,,,,,,,S6,001,2019_Nov_22_1139,test_final,3.2.4,60.02002121049636,
Practice,12,(8/2) + 4,8,,,,,,,,,0,0,0,0,0,14,14,11,,,,,,,,,,,,,,,,,,,,,,,,,,,,,,,,,,,,,,,,,,,,,,,,,,8,359.0694841919467,None,['8'],0,[2.1972337211482227],359.0694841919467,None,359.0694841919467,None,"[2.6585488407872617, 5.373961719684303, 2.777143028564751, 1.955818529240787, 1.9148437553085387, 2.727333794347942, 3.5701386486180127, 1.7517225332558155, 1.5948810623958707, 2.1198167097754776, 1.7772967694327235, 2.8176555214449763, 2.8731535226106644, 1.737465531565249, 2.1972337211482227]",359.0694841919467,None,361.7833935129456,None,,,,,,,,,,,,,,,,,,,,,,,,,,,,,,,,,,,,,,,,,,,,,,,,,,,,,,,,,,,,,,,,,,,,,,,,,,,,,,,,,,,,,S6,001,2019_Nov_22_1139,test_final,3.2.4,60.02002121049636,
,,,,,,,,,,,,0,0,0,0,,,,,,,,,,,,,,,,,,,,,,,,,,,,,,,,,,,,,,,,,,,,,,,,,,,,,,,,,,,,,,,,,,,,,0.9333333333333333,37.847013688180596,2.5231342458787065,13.148266313546916,0.9362430707726463,4.938641368472134,363.33073196187615,None,space,2.458938482683152,363.33073196187615,None,,,,,,,,,,,,,,,,,,,,,,,,,,,,,,,,,,,,,,,,,,,,,,,,,,,,,,,,,,,,,,,,,,,,,,,,,S6,001,2019_Nov_22_1139,test_final,3.2.4,60.02002121049636,
,,,,,,,,,,,,,,,,,,,,,,,,,,,,,,,,,,,,,,,,,,,,,,,,,,,,,,,,,,,,,,,,,,,,,,,,,,,,,,,,,,,,,,,,,,,,,,,,366.3282354348339,None,space,22.725767822936177,366.3282354348339,None,,,,,,,,,,,,,,,,,,,,,,,,,,,,,,,,,,,,,,,,,,,,,,,,,,,,,,,,,,,,,,,,,,,S6,001,2019_Nov_22_1139,test_final,3.2.4,60.02002121049636,
Practice,5,(3/3) + 2,3,,,,,,,,,,,,,,,,,0,0,0,0,0,0,0,0,0,0,0,4,,,,,,,,,,,,,,,,,,,,,,,,,,,,,,,,,,,,,,3,,,,,,,,,,,,,,,,,,,,,,,,,,,,,,,,,389.6021791715175,None,['3'],0,[2.312248495873064],389.6021791715175,None,389.6021791715175,None,389.6021791715175,None,1,392.0029623331502,None,392.0029623331502,None,,,,,,,,,,,,,,,,,,,,,,,,,,,,,,,,,,,,,,,,,,,,,,,,,,,S6,001,2019_Nov_22_1139,test_final,3.2.4,60.02002121049636,
,,,,,,,,,,,,,,,,,,,,0,0,0,0,0,0,0,0,,,,,,,,,,,,,,,,,,,,,,,,,,,,,,,,,,,,,,,,,,,,,,,,,,,,,,,,,,,,,,,,,,,,,,,,,,,,,,,,,,,,,,,,,,,393.3150923503563,None,,,,,,,,,,,,,,,,,,,,,,,,,,,,,,,,,,,,,,,,,,,,,,,,,S6,001,2019_Nov_22_1139,test_final,3.2.4,60.02002121049636,
Practice,2,(1/1) - 1,0,,,,,,,,,,,,,,,,,0,0,0,0,1,0,1,0,0,0,0,1,,,,,,,,,,,,,,,,,,,,,,,,,,,,,,,,,,,,,,0,,,,,,,,,,,,,,,,,,,,,,,,,,,,,,,,,394.6136508528143,None,['0'],0,[1.783632940147072],394.6136508528143,None,394.6136508528143,None,394.6136508528143,None,1,396.48482619505376,None,396.48482619505376,None,,,,,,,,,,,,,,,,,,,,,,,,,,,,,,,,,,,,,,,,,,,,,,,,,,,S6,001,2019_Nov_22_1139,test_final,3.2.4,60.02002121049636,
,,,,,,,,,,,,,,,,,,,,0,0,0,0,1,0,1,0,,,,,,,,,,,,,,,,,,,,,,,,,,,,,,,,,,,,,,,,,,,,,,,,,,,,,,,,,,,,,,,,,,,,,,,,,,,,,,,,,,,,,,,,,,,397.8099406193942,None,,,,,,,,,,,,,,,,,,,,,,,,,,,,,,,,,,,,,,,,,,,,,,,,,S6,001,2019_Nov_22_1139,test_final,3.2.4,60.02002121049636,
,,,,,,,,,,,,,,,,,,,,0,0,0,0,,,,,,,,,,,,,,,,,,,,,,,,,,,,,,,,,,,,,,,,,,,,,,,,,,,,,,,,,,,,,,,,,,,,,,,,,,,,,,,,,,,,,,,,,,,,,,,,,rk,"['r', 'k']",0,"[1.633386813569814, 1.8398816618137062, 2.2749818400479853]",399.09233763767406,None,399.09233763767406,None,399.09233763767406,None,1,401.90505194012076,None,,,,,,,,,,,,,,,,,,,,,,,,,,,,,,,,,,,,S6,001,2019_Nov_22_1139,test_final,3.2.4,60.02002121049636,
Practice,13,(3x8) - 19 ,5,,,,,,,,,,,,,,,,,1,0,1,0,0,0,0,0,0,0,0,12,,,,,,,,,,,,,,,,,,,,,,,,,,,,,,,,,,,,,,,,,,,,,,,,,,,,,,,,,,,,,,,,,,,,,,,403.43708752654493,None,None,0,,403.43708752654493,None,403.43708752654493,None,403.43708752654493,None,0,408.4356834064238,None,408.4356834064238,None,,,,,,,,,,,,,,,,,,,,,,,,,,,,,,,,,,,,,,,,,,,,,,,,,,,S6,001,2019_Nov_22_1139,test_final,3.2.4,60.02002121049636,
Practice,2,(1/1) - 1,0,,,,,,,,,,,,,,,,,1,0,1,0,0,0,0,0,0,1,1,1,,,,,,,,,,,,,,,,,,,,,,,,,,,,,,,,,,,,,,,,,,,,,,,,,,,,,,,,,,,,,,,,,,,,,,,409.7468878044747,None,None,0,,409.7468878044747,None,409.7468878044747,None,409.7468878044747,None,0,414.71720593515784,None,414.71720593515784,None,,,,,,,,,,,,,,,,,,,,,,,,,,,,,,,,,,,,,,,,,,,,,,,,,,,S6,001,2019_Nov_22_1139,test_final,3.2.4,60.02002121049636,
Practice,12,(8/2) + 4,8,,,,,,,,,,,,,,,,,1,0,1,0,0,0,0,0,0,2,2,11,,,,,,,,,,,,,,,,,,,,,,,,,,,,,,,,,,,,,,8,,,,,,,,,,,,,,,,,,,,,,,,,,,,,,,,,416.0399218602106,None,['8'],0,[2.1081923451274633],416.0399218602106,None,416.0399218602106,None,416.0399218602106,None,1,418.2067148811184,None,418.2067148811184,None,,,,,,,,,,,,,,,,,,,,,,,,,,,,,,,,,,,,,,,,,,,,,,,,,,,S6,001,2019_Nov_22_1139,test_final,3.2.4,60.02002121049636,
,,,,,,,,,,,,,,,,,,,,1,0,1,0,0,0,0,0,,,,,,,,,,,,,,,,,,,,,,,,,,,,,,,,,,,,,,,,,,,,,,,,,,,,,,,,,,,,,,,,,,,,,,,,,,,,,,,,,,,,,,,,,,,419.5026876446791,None,,,,,,,,,,,,,,,,,,,,,,,,,,,,,,,,,,,,,,,,,,,,,,,,,S6,001,2019_Nov_22_1139,test_final,3.2.4,60.02002121049636,
Practice,6,(2x6) - 8,4,,,,,,,,,,,,,,,,,1,0,1,0,1,0,1,0,0,0,0,5,,,,,,,,,,,,,,,,,,,,,,,,,,,,,,,,,,,,,,4,,,,,,,,,,,,,,,,,,,,,,,,,,,,,,,,,420.8180120168254,None,['4'],0,[2.037124198395759],420.8180120168254,None,420.8180120168254,None,420.8180120168254,None,1,422.9413538365625,None,422.9413538365625,None,,,,,,,,,,,,,,,,,,,,,,,,,,,,,,,,,,,,,,,,,,,,,,,,,,,S6,001,2019_Nov_22_1139,test_final,3.2.4,60.02002121049636,
,,,,,,,,,,,,,,,,,,,,1,0,1,0,1,0,1,0,,,,,,,,,,,,,,,,,,,,,,,,,,,,,,,,,,,,,,,,,,,,,,,,,,,,,,,,,,,,,,,,,,,,,,,,,,,,,,,,,,,,,,,,,,,424.2477316162549,None,,,,,,,,,,,,,,,,,,,,,,,,,,,,,,,,,,,,,,,,,,,,,,,,,S6,001,2019_Nov_22_1139,test_final,3.2.4,60.02002121049636,
,,,,,,,,,,,,,,,,,,,,1,0,1,0,,,,,,,,,,,,,,,,,,,,,,,,,,,,,,,,,,,,,,,,,,,,,,,,,,,,,,,,,,,,,,,,,,,,,,,,,,,,,,,,,,,,,,,,,,,,,,,,,rkj,"['r', 'k', 'j']",0,"[1.5707976897247136, 1.9283927022479475, 2.581803916953504, 2.9225512528792024, 4.046428344678134, 6.044576753862202, 6.398950612638146, 6.898305676411837]",425.52913002390414,None,425.52913002390414,None,425.52913002390414,None,0,432.9717677384615,None,,,,,,,,,,,,,,,,,,,,,,,,,,,,,,,,,,,,S6,001,2019_Nov_22_1139,test_final,3.2.4,60.02002121049636,
Practice,1,(1x2) + 1,3,,,,,,,,,,,,,,,,,2,0,2,0,0,0,0,0,0,0,0,0,,,,,,,,,,,,,,,,,,,,,,,,,,,,,,,,,,,,,,3,,,,,,,,,,,,,,,,,,,,,,,,,,,,,,,,,434.5196749577299,None,['3'],0,[2.0982764093205333],434.5196749577299,None,434.5196749577299,None,434.5196749577299,None,1,436.7052201386541,None,436.7052201386541,None,,,,,,,,,,,,,,,,,,,,,,,,,,,,,,,,,,,,,,,,,,,,,,,,,,,S6,001,2019_Nov_22_1139,test_final,3.2.4,60.02002121049636,
,,,,,,,,,,,,,,,,,,,,2,0,2,0,0,0,0,0,,,,,,,,,,,,,,,,,,,,,,,,,,,,,,,,,,,,,,,,,,,,,,,,,,,,,,,,,,,,,,,,,,,,,,,,,,,,,,,,,,,,,,,,,,,438.03240548074245,None,,,,,,,,,,,,,,,,,,,,,,,,,,,,,,,,,,,,,,,,,,,,,,,,,S6,001,2019_Nov_22_1139,test_final,3.2.4,60.02002121049636,
Practice,3,(7x2) - 5,9,,,,,,,,,,,,,,,,,2,0,2,0,1,0,1,0,0,0,0,2,,,,,,,,,,,,,,,,,,,,,,,,,,,,,,,,,,,,,,1,,,,,,,,,,,,,,,,,,,,,,,,,,,,,,,,,439.33087865030393,None,['1'],0,[4.375385939143598],439.33087865030393,None,439.33087865030393,None,439.33087865030393,None,0,443.7995345457457,None,443.7995345457457,None,,,,,,,,,,,,,,,,,,,,,,,,,,,,,,,,,,,,,,,,,,,,,,,,,,,S6,001,2019_Nov_22_1139,test_final,3.2.4,60.02002121049636,
Practice,5,(3/3) + 2,3,,,,,,,,,,,,,,,,,2,0,2,0,1,0,1,0,0,1,1,4,,,,,,,,,,,,,,,,,,,,,,,,,,,,,,,,,,,,,,3,,,,,,,,,,,,,,,,,,,,,,,,,,,,,,,,,445.1083915736526,None,['3'],0,[4.181444600224495],445.1083915736526,None,445.1083915736526,None,445.1083915736526,None,1,449.36067653028294,None,449.36067653028294,None,,,,,,,,,,,,,,,,,,,,,,,,,,,,,,,,,,,,,,,,,,,,,,,,,,,S6,001,2019_Nov_22_1139,test_final,3.2.4,60.02002121049636,
,,,,,,,,,,,,,,,,,,,,2,0,2,0,1,0,1,0,,,,,,,,,,,,,,,,,,,,,,,,,,,,,,,,,,,,,,,,,,,,,,,,,,,,,,,,,,,,,,,,,,,,,,,,,,,,,,,,,,,,,,,,,,,450.66830010479316,None,,,,,,,,,,,,,,,,,,,,,,,,,,,,,,,,,,,,,,,,,,,,,,,,,S6,001,2019_Nov_22_1139,test_final,3.2.4,60.02002121049636,
,,,,,,,,,,,,,,,,,,,,2,0,2,0,,,,,,,,,,,,,,,,,,,,,,,,,,,,,,,,,,,,,,,,,,,,,,,,,,,,,,,,,,,,,,,,,,,,,,,,,,,,,,,,,,,,,,,,,,,,,,,,,s,['s'],0,"[1.2400265871547163, 2.4589123888872564]",451.95038858335465,None,451.95038858335465,None,451.95038858335465,None,0,454.93085537757725,None,,,,,,,,,,,,,,,,,,,,,,,,,,,,,,,,,,,,S6,001,2019_Nov_22_1139,test_final,3.2.4,60.02002121049636,
Practice,8,(3/3) + 5,6,,,,,,,,,,,,,,,,,3,0,3,0,0,0,0,0,0,0,0,7,,,,,,,,,,,,,,,,,,,,,,,,,,,,,,,,,,,,,,6,,,,,,,,,,,,,,,,,,,,,,,,,,,,,,,,,456.4626127490774,None,['6'],0,[3.9284480633214116],456.4626127490774,None,456.4626127490774,None,456.4626127490774,None,1,460.4667415386066,None,460.4667415386066,None,,,,,,,,,,,,,,,,,,,,,,,,,,,,,,,,,,,,,,,,,,,,,,,,,,,S6,001,2019_Nov_22_1139,test_final,3.2.4,60.02002121049636,
,,,,,,,,,,,,,,,,,,,,3,0,3,0,0,0,0,0,,,,,,,,,,,,,,,,,,,,,,,,,,,,,,,,,,,,,,,,,,,,,,,,,,,,,,,,,,,,,,,,,,,,,,,,,,,,,,,,,,,,,,,,,,,461.78945993212983,None,,,,,,,,,,,,,,,,,,,,,,,,,,,,,,,,,,,,,,,,,,,,,,,,,S6,001,2019_Nov_22_1139,test_final,3.2.4,60.02002121049636,
Practice,8,(3/3) + 5,6,,,,,,,,,,,,,,,,,3,0,3,0,1,0,1,0,0,0,0,7,,,,,,,,,,,,,,,,,,,,,,,,,,,,,,,,,,,,,,6,,,,,,,,,,,,,,,,,,,,,,,,,,,,,,,,,463.08811681484804,None,['6'],0,[2.0702722906135023],463.08811681484804,None,463.08811681484804,None,463.08811681484804,None,1,465.2542744204402,None,465.2542744204402,None,,,,,,,,,,,,,,,,,,,,,,,,,,,,,,,,,,,,,,,,,,,,,,,,,,,S6,001,2019_Nov_22_1139,test_final,3.2.4,60.02002121049636,
,,,,,,,,,,,,,,,,,,,,3,0,3,0,1,0,1,0,,,,,,,,,,,,,,,,,,,,,,,,,,,,,,,,,,,,,,,,,,,,,,,,,,,,,,,,,,,,,,,,,,,,,,,,,,,,,,,,,,,,,,,,,,,466.5848575779237,None,,,,,,,,,,,,,,,,,,,,,,,,,,,,,,,,,,,,,,,,,,,,,,,,,S6,001,2019_Nov_22_1139,test_final,3.2.4,60.02002121049636,
,,,,,,,,,,,,,,,,,,,,3,0,3,0,,,,,,,,,,,,,,,,,,,,,,,,,,,,,,,,,,,,,,,,,,,,,,,,,,,,,,,,,,,,,,,,,,,,,,,,,,,,,,,,,,,,,,,,,,,,,,,,,zs,"['z', 's']",0,"[1.3780182232148945, 1.7261613430455327, 2.08709810487926]",467.84961599996313,None,467.84961599996313,None,467.84961599996313,None,1,470.48050452396274,None,,,,,,,,,,,,,,,,,,,,,,,,,,,,,,,,,,,,S6,001,2019_Nov_22_1139,test_final,3.2.4,60.02002121049636,
Practice,11,(5x3) - 7,8,,,,,,,,,,,,,,,,,4,0,4,0,0,0,0,0,0,0,0,10,,,,,,,,,,,,,,,,,,,,,,,,,,,,,,,,,,,,,,,,,,,,,,,,,,,,,,,,,,,,,,,,,,,,,,,472.0279917768203,None,None,0,,472.0279917768203,None,472.0279917768203,None,472.0279917768203,None,0,477.03485017316416,None,477.03485017316416,None,,,,,,,,,,,,,,,,,,,,,,,,,,,,,,,,,,,,,,,,,,,,,,,,,,,S6,001,2019_Nov_22_1139,test_final,3.2.4,60.02002121049636,
Practice,1,(1x2) + 1,3,,,,,,,,,,,,,,,,,4,0,4,0,0,0,0,0,0,1,1,0,,,,,,,,,,,,,,,,,,,,,,,,,,,,,,,,,,,,,,3,,,,,,,,,,,,,,,,,,,,,,,,,,,,,,,,,478.3551982762292,None,['3'],0,[2.986965520773083],478.3551982762292,None,478.3551982762292,None,478.3551982762292,None,1,481.4145715353079,None,481.4145715353079,None,,,,,,,,,,,,,,,,,,,,,,,,,,,,,,,,,,,,,,,,,,,,,,,,,,,S6,001,2019_Nov_22_1139,test_final,3.2.4,60.02002121049636,
,,,,,,,,,,,,,,,,,,,,4,0,4,0,0,0,0,0,,,,,,,,,,,,,,,,,,,,,,,,,,,,,,,,,,,,,,,,,,,,,,,,,,,,,,,,,,,,,,,,,,,,,,,,,,,,,,,,,,,,,,,,,,,482.71666114218533,None,,,,,,,,,,,,,,,,,,,,,,,,,,,,,,,,,,,,,,,,,,,,,,,,,S6,001,2019_Nov_22_1139,test_final,3.2.4,60.02002121049636,
Practice,4,(4x4) - 14,2,,,,,,,,,,,,,,,,,4,0,4,0,1,0,1,0,0,0,0,3,,,,,,,,,,,,,,,,,,,,,,,,,,,,,,,,,,,,,,2,,,,,,,,,,,,,,,,,,,,,,,,,,,,,,,,,484.0320934150368,None,['2'],0,[1.8974036830477417],484.0320934150368,None,484.0320934150368,None,484.0320934150368,None,1,486.00723322760314,None,486.00723322760314,None,,,,,,,,,,,,,,,,,,,,,,,,,,,,,,,,,,,,,,,,,,,,,,,,,,,S6,001,2019_Nov_22_1139,test_final,3.2.4,60.02002121049636,
,,,,,,,,,,,,,,,,,,,,4,0,4,0,1,0,1,0,,,,,,,,,,,,,,,,,,,,,,,,,,,,,,,,,,,,,,,,,,,,,,,,,,,,,,,,,,,,,,,,,,,,,,,,,,,,,,,,,,,,,,,,,,,487.327759754844,None,,,,,,,,,,,,,,,,,,,,,,,,,,,,,,,,,,,,,,,,,,,,,,,,,S6,001,2019_Nov_22_1139,test_final,3.2.4,60.02002121049636,
,,,,,,,,,,,,,,,,,,,,4,0,4,0,,,,,,,,,,,,,,,,,,,,,,,,,,,,,,,,,,,,,,,,,,,,,,,,,,,,,,,,,,,,,,,,,,,,,,,,,,,,,,,,,,,,,,,,,,,,,,,,,sn,"['s', 'n']",0,"[0.9393499158322811, 1.261624364182353, 1.6146836676634848]",488.59376115119085,None,488.59376115119085,None,488.59376115119085,None,1,490.724919074215,None,,,,,,,,,,,,,,,,,,,,,,,,,,,,,,,,,,,,S6,001,2019_Nov_22_1139,test_final,3.2.4,60.02002121049636,
Practice,9,(4/2) + 5,7,,,,,,,,,,,,,,,,,5,0,5,0,0,0,0,0,0,0,0,8,,,,,,,,,,,,,,,,,,,,,,,,,,,,,,,,,,,,,,7,,,,,,,,,,,,,,,,,,,,,,,,,,,,,,,,,492.2560939230025,None,['7'],0,[4.143873988650739],492.2560939230025,None,492.2560939230025,None,492.2560939230025,None,1,496.48910731542856,None,496.48910731542856,None,,,,,,,,,,,,,,,,,,,,,,,,,,,,,,,,,,,,,,,,,,,,,,,,,,,S6,001,2019_Nov_22_1139,test_final,3.2.4,60.02002121049636,
,,,,,,,,,,,,,,,,,,,,5,0,5,0,0,0,0,0,,,,,,,,,,,,,,,,,,,,,,,,,,,,,,,,,,,,,,,,,,,,,,,,,,,,,,,,,,,,,,,,,,,,,,,,,,,,,,,,,,,,,,,,,,,497.81653455272317,None,,,,,,,,,,,,,,,,,,,,,,,,,,,,,,,,,,,,,,,,,,,,,,,,,S6,001,2019_Nov_22_1139,test_final,3.2.4,60.02002121049636,
Practice,7,(4x6) - 17,7,,,,,,,,,,,,,,,,,5,0,5,0,1,0,1,0,0,0,0,6,,,,,,,,,,,,,,,,,,,,,,,,,,,,,,,,,,,,,,7,,,,,,,,,,,,,,,,,,,,,,,,,,,,,,,,,499.11555745173246,None,['7'],0,[4.085481709800661],499.11555745173246,None,499.11555745173246,None,499.11555745173246,None,1,503.29657397512347,None,503.29657397512347,None,,,,,,,,,,,,,,,,,,,,,,,,,,,,,,,,,,,,,,,,,,,,,,,,,,,S6,001,2019_Nov_22_1139,test_final,3.2.4,60.02002121049636,
,,,,,,,,,,,,,,,,,,,,5,0,5,0,1,0,1,0,,,,,,,,,,,,,,,,,,,,,,,,,,,,,,,,,,,,,,,,,,,,,,,,,,,,,,,,,,,,,,,,,,,,,,,,,,,,,,,,,,,,,,,,,,,504.60878227325156,None,,,,,,,,,,,,,,,,,,,,,,,,,,,,,,,,,,,,,,,,,,,,,,,,,S6,001,2019_Nov_22_1139,test_final,3.2.4,60.02002121049636,
,,,,,,,,,,,,,,,,,,,,5,0,5,0,,,,,,,,,,,,,,,,,,,,,,,,,,,,,,,,,,,,,,,,,,,,,,,,,,,,,,,,,,,,,,,,,,,,,,,,,,,,,,,,,,,,,,,,,,,,,,,,,rz,"['r', 'z']",0,"[1.4098916058428586, 2.5433224965818226, 2.914919215720147]",505.87428330630064,None,505.87428330630064,None,505.87428330630064,None,1,509.321149953641,None,,,,,,,,,,,,,,,,,,,,,,,,,,,,,,,,,,,,S6,001,2019_Nov_22_1139,test_final,3.2.4,60.02002121049636,
,,,,,,,,,,,,,,,,,,,,,,,,,,,,,,,,,,,,,,,,,,,,,,,,,,,,,,,,,,,,,,,,,,,,,,,,,,,,,,,,,,,,,,,,,,,,,,,,,,,,,,,,,,,,,,,,,,,,,,,,,,,,,,,,,,,,,510.83538861898705,None,space,8.065767611376941,510.83538861898705,None,,,,,,,,,,,,,,,,,,,,,,,,,,,,,,S6,001,2019_Nov_22_1139,test_final,3.2.4,60.02002121049636,
Practice,7,(4x6) - 17,7,,,,,,,,,,,,,,,,,,,,,,,,,,,,,0,0,0,0,0,0,0,0,0,0,0,6,,,,,,,,,,,,,,,,,,,,,,,,,,7,,,,,,,,,,,,,,,,,,,,,,,,,,,,,,,,,,,,,,,,,,,,1,,,,,,,,,,,,,,,,,,,,,,,,,,519.458964928519,None,['7'],0,[3.0081930505111814],519.458964928519,None,519.458964928519,None,519.458964928519,None,522.5614660391584,None,522.5614660391584,None,,,,,,,,,,,,,,,S6,001,2019_Nov_22_1139,test_final,3.2.4,60.02002121049636,
,,,,,,,,,,,,,,,,,,,,,,,,,,,,,,,,0,0,0,0,0,0,0,0,,,,,,,,,,,,,,,,,,,,,,,,,,,,,,,,,,,,,,,,,,,,,,,,,,,,,,,,,,,,,,,,,,,,,,,,,,,,,,,,,,,,,,,,,,,,,,,,,,,,,,,,,,,,,,,,,,,523.855138331186,None,,,,,,,,,,,,,S6,001,2019_Nov_22_1139,test_final,3.2.4,60.02002121049636,
Practice,1,(1x2) + 1,3,,,,,,,,,,,,,,,,,,,,,,,,,,,,,0,0,0,0,1,0,1,0,0,0,0,0,,,,,,,,,,,,,,,,,,,,,,,,,,3,,,,,,,,,,,,,,,,,,,,,,,,,,,,,,,,,,,,,,,,,,,,1,,,,,,,,,,,,,,,,,,,,,,,,,,525.1862535877153,None,['3'],0,[2.004821681883186],525.1862535877153,None,525.1862535877153,None,525.1862535877153,None,527.2638391503133,None,527.2638391503133,None,,,,,,,,,,,,,,,S6,001,2019_Nov_22_1139,test_final,3.2.4,60.02002121049636,
,,,,,,,,,,,,,,,,,,,,,,,,,,,,,,,,0,0,0,0,1,0,1,0,,,,,,,,,,,,,,,,,,,,,,,,,,,,,,,,,,,,,,,,,,,,,,,,,,,,,,,,,,,,,,,,,,,,,,,,,,,,,,,,,,,,,,,,,,,,,,,,,,,,,,,,,,,,,,,,,,,528.566618828103,None,,,,,,,,,,,,,S6,001,2019_Nov_22_1139,test_final,3.2.4,60.02002121049636,
,,,,,,,,,,,,,,,,,,,,,,,,,,,,,,,,0,0,0,0,,,,,,,,,,,,,,,,,,,,,,,,,,,,,,,,,,,,,,,,,,,,,,,,,,,,,,,,,,,,,,,,,,,,,,,,,,,,,,,,,,,,,,,,,,,,,,,,,,,,,,,,,,,,,,,,,,,,,,,,,zl,"['z', 'l']",0,"[1.40801674220711, 1.6384828314185143, 1.946624752599746]",529.8812746391632,None,529.8812746391632,None,1,ZL,529.8812746391632,None,S6,001,2019_Nov_22_1139,test_final,3.2.4,60.02002121049636,
Practice,13,(3x8) - 19 ,5,,,,,,,,,,,,,,,,,,,,,,,,,,,,,1,0,1,0,0,0,0,0,0,0,0,12,,,,,,,,,,,,,,,,,,,,,,,,,,5,,,,,,,,,,,,,,,,,,,,,,,,,,,,,,,,,,,,,,,,,,,,1,,,,,,,,,,,,,,,,,,,,,,,,,,532.3790944092907,None,['5'],0,[2.749513741582632],532.3790944092907,None,532.3790944092907,None,532.3790944092907,None,535.216432293877,None,535.216432293877,None,,,,,,,,,,,,,,,S6,001,2019_Nov_22_1139,test_final,3.2.4,60.02002121049636,
,,,,,,,,,,,,,,,,,,,,,,,,,,,,,,,,1,0,1,0,0,0,0,0,,,,,,,,,,,,,,,,,,,,,,,,,,,,,,,,,,,,,,,,,,,,,,,,,,,,,,,,,,,,,,,,,,,,,,,,,,,,,,,,,,,,,,,,,,,,,,,,,,,,,,,,,,,,,,,,,,,536.5407036114484,None,,,,,,,,,,,,,S6,001,2019_Nov_22_1139,test_final,3.2.4,60.02002121049636,
Practice,2,(1/1) - 1,0,,,,,,,,,,,,,,,,,,,,,,,,,,,,,1,0,1,0,1,0,1,0,0,0,0,1,,,,,,,,,,,,,,,,,,,,,,,,,,0,,,,,,,,,,,,,,,,,,,,,,,,,,,,,,,,,,,,,,,,,,,,1,,,,,,,,,,,,,,,,,,,,,,,,,,537.8393781250343,None,['0'],0,[1.2742233616299927],537.8393781250343,None,537.8393781250343,None,537.8393781250343,None,539.1868142485619,None,539.1868142485619,None,,,,,,,,,,,,,,,S6,001,2019_Nov_22_1139,test_final,3.2.4,60.02002121049636,
,,,,,,,,,,,,,,,,,,,,,,,,,,,,,,,,1,0,1,0,1,0,1,0,,,,,,,,,,,,,,,,,,,,,,,,,,,,,,,,,,,,,,,,,,,,,,,,,,,,,,,,,,,,,,,,,,,,,,,,,,,,,,,,,,,,,,,,,,,,,,,,,,,,,,,,,,,,,,,,,,,540.5032151597552,None,,,,,,,,,,,,,S6,001,2019_Nov_22_1139,test_final,3.2.4,60.02002121049636,
Practice,2,(1/1) - 1,0,,,,,,,,,,,,,,,,,,,,,,,,,,,,,1,0,1,0,2,0,2,0,0,0,0,1,,,,,,,,,,,,,,,,,,,,,,,,,,0,,,,,,,,,,,,,,,,,,,,,,,,,,,,,,,,,,,,,,,,,,,,1,,,,,,,,,,,,,,,,,,,,,,,,,,541.8187503963709,None,['0'],0,[1.957766736857593],541.8187503963709,None,541.8187503963709,None,541.8187503963709,None,543.8437015591189,None,543.8437015591189,None,,,,,,,,,,,,,,,S6,001,2019_Nov_22_1139,test_final,3.2.4,60.02002121049636,
,,,,,,,,,,,,,,,,,,,,,,,,,,,,,,,,1,0,1,0,2,0,2,0,,,,,,,,,,,,,,,,,,,,,,,,,,,,,,,,,,,,,,,,,,,,,,,,,,,,,,,,,,,,,,,,,,,,,,,,,,,,,,,,,,,,,,,,,,,,,,,,,,,,,,,,,,,,,,,,,,,545.1642143344507,None,,,,,,,,,,,,,S6,001,2019_Nov_22_1139,test_final,3.2.4,60.02002121049636,
,,,,,,,,,,,,,,,,,,,,,,,,,,,,,,,,1,0,1,0,,,,,,,,,,,,,,,,,,,,,,,,,,,,,,,,,,,,,,,,,,,,,,,,,,,,,,,,,,,,,,,,,,,,,,,,,,,,,,,,,,,,,,,,,,,,,,,,,,,,,,,,,,,,,,,,,,,,,,,,,zjh,"['z', 'j', 'h']",0,"[0.9186893939040601, 1.170272643212229, 1.374809057917446, 1.954927819315344]",546.4466254571453,None,546.4466254571453,None,1,ZJH,546.4466254571453,None,S6,001,2019_Nov_22_1139,test_final,3.2.4,60.02002121049636,
Practice,12,(8/2) + 4,8,,,,,,,,,,,,,,,,,,,,,,,,,,,,,2,0,2,0,0,0,0,0,0,0,0,11,,,,,,,,,,,,,,,,,,,,,,,,,,8,,,,,,,,,,,,,,,,,,,,,,,,,,,,,,,,,,,,,,,,,,,,1,,,,,,,,,,,,,,,,,,,,,,,,,,548.9603993734345,None,['8'],0,[3.1457125330343843],548.9603993734345,None,548.9603993734345,None,548.9603993734345,None,552.1750671733171,None,552.1750671733171,None,,,,,,,,,,,,,,,S6,001,2019_Nov_22_1139,test_final,3.2.4,60.02002121049636,
,,,,,,,,,,,,,,,,,,,,,,,,,,,,,,,,2,0,2,0,0,0,0,0,,,,,,,,,,,,,,,,,,,,,,,,,,,,,,,,,,,,,,,,,,,,,,,,,,,,,,,,,,,,,,,,,,,,,,,,,,,,,,,,,,,,,,,,,,,,,,,,,,,,,,,,,,,,,,,,,,,553.5057240277529,None,,,,,,,,,,,,,S6,001,2019_Nov_22_1139,test_final,3.2.4,60.02002121049636,
Practice,13,(3x8) - 19 ,5,,,,,,,,,,,,,,,,,,,,,,,,,,,,,2,0,2,0,1,0,1,0,0,0,0,12,,,,,,,,,,,,,,,,,,,,,,,,,,6,,,,,,,,,,,,,,,,,,,,,,,,,,,,,,,,,,,,,,,,,,,,0,,,,,,,,,,,,,,,,,,,,,,,,,,554.8035275777802,None,['6'],0,[2.1132453437894583],554.8035275777802,None,554.8035275777802,None,554.8035275777802,None,557.0114261936396,None,557.0114261936396,None,,,,,,,,,,,,,,,S6,001,2019_Nov_22_1139,test_final,3.2.4,60.02002121049636,
Practice,6,(2x6) - 8,4,,,,,,,,,,,,,,,,,,,,,,,,,,,,,2,0,2,0,1,0,1,0,0,1,1,5,,,,,,,,,,,,,,,,,,,,,,,,,,4,,,,,,,,,,,,,,,,,,,,,,,,,,,,,,,,,,,,,,,,,,,,1,,,,,,,,,,,,,,,,,,,,,,,,,,558.3332016896456,None,['4'],0,[2.645157161168754],558.3332016896456,None,558.3332016896456,None,558.3332016896456,None,561.0329389902763,None,561.0329389902763,None,,,,,,,,,,,,,,,S6,001,2019_Nov_22_1139,test_final,3.2.4,60.02002121049636,
,,,,,,,,,,,,,,,,,,,,,,,,,,,,,,,,2,0,2,0,1,0,1,0,,,,,,,,,,,,,,,,,,,,,,,,,,,,,,,,,,,,,,,,,,,,,,,,,,,,,,,,,,,,,,,,,,,,,,,,,,,,,,,,,,,,,,,,,,,,,,,,,,,,,,,,,,,,,,,,,,,562.3288302994333,None,,,,,,,,,,,,,S6,001,2019_Nov_22_1139,test_final,3.2.4,60.02002121049636,
Practice,7,(4x6) - 17,7,,,,,,,,,,,,,,,,,,,,,,,,,,,,,2,0,2,0,2,0,2,0,0,0,0,6,,,,,,,,,,,,,,,,,,,,,,,,,,7,,,,,,,,,,,,,,,,,,,,,,,,,,,,,,,,,,,,,,,,,,,,1,,,,,,,,,,,,,,,,,,,,,,,,,,563.6439480381086,None,['7'],0,[2.8406739914789796],563.6439480381086,None,563.6439480381086,None,563.6439480381086,None,566.5666195335798,None,566.5666195335798,None,,,,,,,,,,,,,,,S6,001,2019_Nov_22_1139,test_final,3.2.4,60.02002121049636,
,,,,,,,,,,,,,,,,,,,,,,,,,,,,,,,,2,0,2,0,2,0,2,0,,,,,,,,,,,,,,,,,,,,,,,,,,,,,,,,,,,,,,,,,,,,,,,,,,,,,,,,,,,,,,,,,,,,,,,,,,,,,,,,,,,,,,,,,,,,,,,,,,,,,,,,,,,,,,,,,,,567.8899218598381,None,,,,,,,,,,,,,S6,001,2019_Nov_22_1139,test_final,3.2.4,60.02002121049636,
Practice,2,(1/1) - 1,0,,,,,,,,,,,,,,,,,,,,,,,,,,,,,2,0,2,0,3,0,3,0,0,0,0,1,,,,,,,,,,,,,,,,,,,,,,,,,,0,,,,,,,,,,,,,,,,,,,,,,,,,,,,,,,,,,,,,,,,,,,,1,,,,,,,,,,,,,,,,,,,,,,,,,,569.1883364948444,None,['0'],0,[1.4041703986003995],569.1883364948444,None,569.1883364948444,None,569.1883364948444,None,570.6750833936967,None,570.6750833936967,None,,,,,,,,,,,,,,,S6,001,2019_Nov_22_1139,test_final,3.2.4,60.02002121049636,
,,,,,,,,,,,,,,,,,,,,,,,,,,,,,,,,2,0,2,0,3,0,3,0,,,,,,,,,,,,,,,,,,,,,,,,,,,,,,,,,,,,,,,,,,,,,,,,,,,,,,,,,,,,,,,,,,,,,,,,,,,,,,,,,,,,,,,,,,,,,,,,,,,,,,,,,,,,,,,,,,,572.0019189403392,None,,,,,,,,,,,,,S6,001,2019_Nov_22_1139,test_final,3.2.4,60.02002121049636,
,,,,,,,,,,,,,,,,,,,,,,,,,,,,,,,,2,0,2,0,,,,,,,,,,,,,,,,,,,,,,,,,,,,,,,,,,,,,,,,,,,,,,,,,,,,,,,,,,,,,,,,,,,,,,,,,,,,,,,,,,,,,,,,,,,,,,,,,,,,,,,,,,,,,,,,,,,,,,,,,zrtv,"['z', 'r', 't', 'v']",0,"[0.860503748524934, 1.4944082032889128, 1.8111518579535186, 2.1647527804598212, 2.741815412417054]",573.267154100351,None,573.267154100351,None,0,JRTV,573.267154100351,None,S6,001,2019_Nov_22_1139,test_final,3.2.4,60.02002121049636,
Practice,8,(3/3) + 5,6,,,,,,,,,,,,,,,,,,,,,,,,,,,,,3,0,3,0,0,0,0,0,0,0,0,7,,,,,,,,,,,,,,,,,,,,,,,,,,5,,,,,,,,,,,,,,,,,,,,,,,,,,,,,,,,,,,,,,,,,,,,0,,,,,,,,,,,,,,,,,,,,,,,,,,576.5468768733554,None,['5'],0,[2.6362574668601155],576.5468768733554,None,576.5468768733554,None,576.5468768733554,None,579.2709898655303,None,579.2709898655303,None,,,,,,,,,,,,,,,S6,001,2019_Nov_22_1139,test_final,3.2.4,60.02002121049636,
Practice,12,(8/2) + 4,8,,,,,,,,,,,,,,,,,,,,,,,,,,,,,3,0,3,0,0,0,0,0,0,1,1,11,,,,,,,,,,,,,,,,,,,,,,,,,,8,,,,,,,,,,,,,,,,,,,,,,,,,,,,,,,,,,,,,,,,,,,,1,,,,,,,,,,,,,,,,,,,,,,,,,,580.5922706401907,None,['8'],0,[1.9085005326196551],580.5922706401907,None,580.5922706401907,None,580.5922706401907,None,582.5629484402016,None,582.5629484402016,None,,,,,,,,,,,,,,,S6,001,2019_Nov_22_1139,test_final,3.2.4,60.02002121049636,
,,,,,,,,,,,,,,,,,,,,,,,,,,,,,,,,3,0,3,0,0,0,0,0,,,,,,,,,,,,,,,,,,,,,,,,,,,,,,,,,,,,,,,,,,,,,,,,,,,,,,,,,,,,,,,,,,,,,,,,,,,,,,,,,,,,,,,,,,,,,,,,,,,,,,,,,,,,,,,,,,,583.872374238912,None,,,,,,,,,,,,,S6,001,2019_Nov_22_1139,test_final,3.2.4,60.02002121049636,
Practice,14,(6/3) + 4 ,6,,,,,,,,,,,,,,,,,,,,,,,,,,,,,3,0,3,0,1,0,1,0,0,0,0,13,,,,,,,,,,,,,,,,,,,,,,,,,,6,,,,,,,,,,,,,,,,,,,,,,,,,,,,,,,,,,,,,,,,,,,,1,,,,,,,,,,,,,,,,,,,,,,,,,,585.1873026224785,None,['6'],0,[3.0557525898329914],585.1873026224785,None,585.1873026224785,None,585.1873026224785,None,588.3380956575274,None,588.3380956575274,None,,,,,,,,,,,,,,,S6,001,2019_Nov_22_1139,test_final,3.2.4,60.02002121049636,
,,,,,,,,,,,,,,,,,,,,,,,,,,,,,,,,3,0,3,0,1,0,1,0,,,,,,,,,,,,,,,,,,,,,,,,,,,,,,,,,,,,,,,,,,,,,,,,,,,,,,,,,,,,,,,,,,,,,,,,,,,,,,,,,,,,,,,,,,,,,,,,,,,,,,,,,,,,,,,,,,,589.666123048868,None,,,,,,,,,,,,,S6,001,2019_Nov_22_1139,test_final,3.2.4,60.02002121049636,
Practice,5,(3/3) + 2,3,,,,,,,,,,,,,,,,,,,,,,,,,,,,,3,0,3,0,2,0,2,0,0,0,0,4,,,,,,,,,,,,,,,,,,,,,,,,,,3,,,,,,,,,,,,,,,,,,,,,,,,,,,,,,,,,,,,,,,,,,,,1,,,,,,,,,,,,,,,,,,,,,,,,,,590.9646917777136,None,['3'],0,[1.2234215107746422],590.9646917777136,None,590.9646917777136,None,590.9646917777136,None,592.2807136257179,None,592.2807136257179,None,,,,,,,,,,,,,,,S6,001,2019_Nov_22_1139,test_final,3.2.4,60.02002121049636,
,,,,,,,,,,,,,,,,,,,,,,,,,,,,,,,,3,0,3,0,2,0,2,0,,,,,,,,,,,,,,,,,,,,,,,,,,,,,,,,,,,,,,,,,,,,,,,,,,,,,,,,,,,,,,,,,,,,,,,,,,,,,,,,,,,,,,,,,,,,,,,,,,,,,,,,,,,,,,,,,,,593.5941158840433,None,,,,,,,,,,,,,S6,001,2019_Nov_22_1139,test_final,3.2.4,60.02002121049636,
Practice,15,(9/3) - 2,1,,,,,,,,,,,,,,,,,,,,,,,,,,,,,3,0,3,0,3,0,3,0,0,0,0,14,,,,,,,,,,,,,,,,,,,,,,,,,,1,,,,,,,,,,,,,,,,,,,,,,,,,,,,,,,,,,,,,,,,,,,,1,,,,,,,,,,,,,,,,,,,,,,,,,,594.893117625732,None,['1'],0,[1.8369849151931703],594.893117625732,None,594.893117625732,None,594.893117625732,None,596.8280838099308,None,596.8280838099308,None,,,,,,,,,,,,,,,S6,001,2019_Nov_22_1139,test_final,3.2.4,60.02002121049636,
,,,,,,,,,,,,,,,,,,,,,,,,,,,,,,,,3,0,3,0,3,0,3,0,,,,,,,,,,,,,,,,,,,,,,,,,,,,,,,,,,,,,,,,,,,,,,,,,,,,,,,,,,,,,,,,,,,,,,,,,,,,,,,,,,,,,,,,,,,,,,,,,,,,,,,,,,,,,,,,,,,598.1246866998263,None,,,,,,,,,,,,,S6,001,2019_Nov_22_1139,test_final,3.2.4,60.02002121049636,
,,,,,,,,,,,,,,,,,,,,,,,,,,,,,,,,3,0,3,0,,,,,,,,,,,,,,,,,,,,,,,,,,,,,,,,,,,,,,,,,,,,,,,,,,,,,,,,,,,,,,,,,,,,,,,,,,,,,,,,,,,,,,,,,,,,,,,,,,,,,,,,,,,,,,,,,,,,,,,,,jltv,"['j', 'l', 't', 'v']",0,"[0.9610933237709105, 1.2100181952118874, 1.7236655219458044, 2.009515011217445, 2.6028755898587406]",599.4217003886588,None,599.4217003886588,None,1,JLTV,599.4217003886588,None,S6,001,2019_Nov_22_1139,test_final,3.2.4,60.02002121049636,
Practice,6,(2x6) - 8,4,,,,,,,,,,,,,,,,,,,,,,,,,,,,,4,0,4,0,0,0,0,0,0,0,0,5,,,,,,,,,,,,,,,,,,,,,,,,,,4,,,,,,,,,,,,,,,,,,,,,,,,,,,,,,,,,,,,,,,,,,,,1,,,,,,,,,,,,,,,,,,,,,,,,,,602.5843931818381,None,['4'],0,[2.0574800595641136],602.5843931818381,None,602.5843931818381,None,602.5843931818381,None,604.7354210596532,None,604.7354210596532,None,,,,,,,,,,,,,,,S6,001,2019_Nov_22_1139,test_final,3.2.4,60.02002121049636,
,,,,,,,,,,,,,,,,,,,,,,,,,,,,,,,,4,0,4,0,0,0,0,0,,,,,,,,,,,,,,,,,,,,,,,,,,,,,,,,,,,,,,,,,,,,,,,,,,,,,,,,,,,,,,,,,,,,,,,,,,,,,,,,,,,,,,,,,,,,,,,,,,,,,,,,,,,,,,,,,,,606.0481635718606,None,,,,,,,,,,,,,S6,001,2019_Nov_22_1139,test_final,3.2.4,60.02002121049636,
Practice,9,(4/2) + 5,7,,,,,,,,,,,,,,,,,,,,,,,,,,,,,4,0,4,0,1,0,1,0,0,0,0,8,,,,,,,,,,,,,,,,,,,,,,,,,,7,,,,,,,,,,,,,,,,,,,,,,,,,,,,,,,,,,,,,,,,,,,,1,,,,,,,,,,,,,,,,,,,,,,,,,,607.3617301494814,None,['7'],0,[2.885785312857479],607.3617301494814,None,607.3617301494814,None,607.3617301494814,None,610.3428122596815,None,610.3428122596815,None,,,,,,,,,,,,,,,S6,001,2019_Nov_22_1139,test_final,3.2.4,60.02002121049636,
,,,,,,,,,,,,,,,,,,,,,,,,,,,,,,,,4,0,4,0,1,0,1,0,,,,,,,,,,,,,,,,,,,,,,,,,,,,,,,,,,,,,,,,,,,,,,,,,,,,,,,,,,,,,,,,,,,,,,,,,,,,,,,,,,,,,,,,,,,,,,,,,,,,,,,,,,,,,,,,,,,611.6573016354814,None,,,,,,,,,,,,,S6,001,2019_Nov_22_1139,test_final,3.2.4,60.02002121049636,
Practice,5,(3/3) + 2,3,,,,,,,,,,,,,,,,,,,,,,,,,,,,,4,0,4,0,2,0,2,0,0,0,0,4,,,,,,,,,,,,,,,,,,,,,,,,,,3,,,,,,,,,,,,,,,,,,,,,,,,,,,,,,,,,,,,,,,,,,,,1,,,,,,,,,,,,,,,,,,,,,,,,,,612.973421158269,None,['3'],0,[1.4059606338851154],612.973421158269,None,612.973421158269,None,612.973421158269,None,614.4726870101877,None,614.4726870101877,None,,,,,,,,,,,,,,,S6,001,2019_Nov_22_1139,test_final,3.2.4,60.02002121049636,
,,,,,,,,,,,,,,,,,,,,,,,,,,,,,,,,4,0,4,0,2,0,2,0,,,,,,,,,,,,,,,,,,,,,,,,,,,,,,,,,,,,,,,,,,,,,,,,,,,,,,,,,,,,,,,,,,,,,,,,,,,,,,,,,,,,,,,,,,,,,,,,,,,,,,,,,,,,,,,,,,,615.7873992398381,None,,,,,,,,,,,,,S6,001,2019_Nov_22_1139,test_final,3.2.4,60.02002121049636,
Practice,7,(4x6) - 17,7,,,,,,,,,,,,,,,,,,,,,,,,,,,,,4,0,4,0,3,0,3,0,0,0,0,6,,,,,,,,,,,,,,,,,,,,,,,,,,7,,,,,,,,,,,,,,,,,,,,,,,,,,,,,,,,,,,,,,,,,,,,1,,,,,,,,,,,,,,,,,,,,,,,,,,617.0854637259617,None,['7'],0,[4.2473652474582195],617.0854637259617,None,617.0854637259617,None,617.0854637259617,None,621.4360434282571,None,621.4360434282571,None,,,,,,,,,,,,,,,S6,001,2019_Nov_22_1139,test_final,3.2.4,60.02002121049636,
,,,,,,,,,,,,,,,,,,,,,,,,,,,,,,,,4,0,4,0,3,0,3,0,,,,,,,,,,,,,,,,,,,,,,,,,,,,,,,,,,,,,,,,,,,,,,,,,,,,,,,,,,,,,,,,,,,,,,,,,,,,,,,,,,,,,,,,,,,,,,,,,,,,,,,,,,,,,,,,,,,622.7628257297911,None,,,,,,,,,,,,,S6,001,2019_Nov_22_1139,test_final,3.2.4,60.02002121049636,
Practice,11,(5x3) - 7,8,,,,,,,,,,,,,,,,,,,,,,,,,,,,,4,0,4,0,4,0,4,0,0,0,0,10,,,,,,,,,,,,,,,,,,,,,,,,,,,,,,,,,,,,,,,,,,,,,,,,,,,,,,,,,,,,,,,,,,,,,,0,,,,,,,,,,,,,,,,,,,,,,,,,,624.060422998853,None,None,0,,624.060422998853,None,624.060422998853,None,624.060422998853,None,629.0624011792243,None,629.0624011792243,None,,,,,,,,,,,,,,,S6,001,2019_Nov_22_1139,test_final,3.2.4,60.02002121049636,
Practice,1,(1x2) + 1,3,,,,,,,,,,,,,,,,,,,,,,,,,,,,,4,0,4,0,4,0,4,0,0,1,1,0,,,,,,,,,,,,,,,,,,,,,,,,,,3,,,,,,,,,,,,,,,,,,,,,,,,,,,,,,,,,,,,,,,,,,,,1,,,,,,,,,,,,,,,,,,,,,,,,,,630.3867546562105,None,['3'],0,[3.512303856667131],630.3867546562105,None,630.3867546562105,None,630.3867546562105,None,633.9521432043985,None,633.9521432043985,None,,,,,,,,,,,,,,,S6,001,2019_Nov_22_1139,test_final,3.2.4,60.02002121049636,
,,,,,,,,,,,,,,,,,,,,,,,,,,,,,,,,4,0,4,0,4,0,4,0,,,,,,,,,,,,,,,,,,,,,,,,,,,,,,,,,,,,,,,,,,,,,,,,,,,,,,,,,,,,,,,,,,,,,,,,,,,,,,,,,,,,,,,,,,,,,,,,,,,,,,,,,,,,,,,,,,,635.3141653207131,None,,,,,,,,,,,,,S6,001,2019_Nov_22_1139,test_final,3.2.4,60.02002121049636,
,,,,,,,,,,,,,,,,,,,,,,,,,,,,,,,,4,0,4,0,,,,,,,,,,,,,,,,,,,,,,,,,,,,,,,,,,,,,,,,,,,,,,,,,,,,,,,,,,,,,,,,,,,,,,,,,,,,,,,,,,,,,,,,,,,,,,,,,,,,,,,,,,,,,,,,,,,,,,,,,nxzj,"['n', 'x', 'z', 'j']",0,"[1.533288786187768, 2.445815144572407, 2.8129392727278173, 3.261268926784396, 3.77957855258137]",636.5476498091593,None,636.5476498091593,None,0,NXZKJ,636.5476498091593,None,S6,001,2019_Nov_22_1139,test_final,3.2.4,60.02002121049636,
Practice,9,(4/2) + 5,7,,,,,,,,,,,,,,,,,,,,,,,,,,,,,5,0,5,0,0,0,0,0,0,0,0,8,,,,,,,,,,,,,,,,,,,,,,,,,,7,,,,,,,,,,,,,,,,,,,,,,,,,,,,,,,,,,,,,,,,,,,,1,,,,,,,,,,,,,,,,,,,,,,,,,,640.8598260185681,None,['7'],0,[2.3629064792767167],640.8598260185681,None,640.8598260185681,None,640.8598260185681,None,643.3103214451112,None,643.3103214451112,None,,,,,,,,,,,,,,,S6,001,2019_Nov_22_1139,test_final,3.2.4,60.02002121049636,
,,,,,,,,,,,,,,,,,,,,,,,,,,,,,,,,5,0,5,0,0,0,0,0,,,,,,,,,,,,,,,,,,,,,,,,,,,,,,,,,,,,,,,,,,,,,,,,,,,,,,,,,,,,,,,,,,,,,,,,,,,,,,,,,,,,,,,,,,,,,,,,,,,,,,,,,,,,,,,,,,,644.622049478814,None,,,,,,,,,,,,,S6,001,2019_Nov_22_1139,test_final,3.2.4,60.02002121049636,
Practice,15,(9/3) - 2,1,,,,,,,,,,,,,,,,,,,,,,,,,,,,,5,0,5,0,1,0,1,0,0,0,0,14,,,,,,,,,,,,,,,,,,,,,,,,,,1,,,,,,,,,,,,,,,,,,,,,,,,,,,,,,,,,,,,,,,,,,,,1,,,,,,,,,,,,,,,,,,,,,,,,,,645.9357345360331,None,['1'],0,[1.3761317236348987],645.9357345360331,None,645.9357345360331,None,645.9357345360331,None,647.3958669789135,None,647.3958669789135,None,,,,,,,,,,,,,,,S6,001,2019_Nov_22_1139,test_final,3.2.4,60.02002121049636,
,,,,,,,,,,,,,,,,,,,,,,,,,,,,,,,,5,0,5,0,1,0,1,0,,,,,,,,,,,,,,,,,,,,,,,,,,,,,,,,,,,,,,,,,,,,,,,,,,,,,,,,,,,,,,,,,,,,,,,,,,,,,,,,,,,,,,,,,,,,,,,,,,,,,,,,,,,,,,,,,,,648.7178420559503,None,,,,,,,,,,,,,S6,001,2019_Nov_22_1139,test_final,3.2.4,60.02002121049636,
Practice,14,(6/3) + 4 ,6,,,,,,,,,,,,,,,,,,,,,,,,,,,,,5,0,5,0,2,0,2,0,0,0,0,13,,,,,,,,,,,,,,,,,,,,,,,,,,6,,,,,,,,,,,,,,,,,,,,,,,,,,,,,,,,,,,,,,,,,,,,1,,,,,,,,,,,,,,,,,,,,,,,,,,650.0159506192431,None,['6'],0,[2.494244589470327],650.0159506192431,None,650.0159506192431,None,650.0159506192431,None,652.6001332891174,None,652.6001332891174,None,,,,,,,,,,,,,,,S6,001,2019_Nov_22_1139,test_final,3.2.4,60.02002121049636,
,,,,,,,,,,,,,,,,,,,,,,,,,,,,,,,,5,0,5,0,2,0,2,0,,,,,,,,,,,,,,,,,,,,,,,,,,,,,,,,,,,,,,,,,,,,,,,,,,,,,,,,,,,,,,,,,,,,,,,,,,,,,,,,,,,,,,,,,,,,,,,,,,,,,,,,,,,,,,,,,,,653.9121409477666,None,,,,,,,,,,,,,S6,001,2019_Nov_22_1139,test_final,3.2.4,60.02002121049636,
Practice,4,(4x4) - 14,2,,,,,,,,,,,,,,,,,,,,,,,,,,,,,5,0,5,0,3,0,3,0,0,0,0,3,,,,,,,,,,,,,,,,,,,,,,,,,,2,,,,,,,,,,,,,,,,,,,,,,,,,,,,,,,,,,,,,,,,,,,,1,,,,,,,,,,,,,,,,,,,,,,,,,,655.2265739049762,None,['2'],0,[1.54490856686607],655.2265739049762,None,655.2265739049762,None,655.2265739049762,None,656.8616888932884,None,656.8616888932884,None,,,,,,,,,,,,,,,S6,001,2019_Nov_22_1139,test_final,3.2.4,60.02002121049636,
,,,,,,,,,,,,,,,,,,,,,,,,,,,,,,,,5,0,5,0,3,0,3,0,,,,,,,,,,,,,,,,,,,,,,,,,,,,,,,,,,,,,,,,,,,,,,,,,,,,,,,,,,,,,,,,,,,,,,,,,,,,,,,,,,,,,,,,,,,,,,,,,,,,,,,,,,,,,,,,,,,658.174044937361,None,,,,,,,,,,,,,S6,001,2019_Nov_22_1139,test_final,3.2.4,60.02002121049636,
Practice,10,(8/4) + 3,5,,,,,,,,,,,,,,,,,,,,,,,,,,,,,5,0,5,0,4,0,4,0,0,0,0,9,,,,,,,,,,,,,,,,,,,,,,,,,,5,,,,,,,,,,,,,,,,,,,,,,,,,,,,,,,,,,,,,,,,,,,,1,,,,,,,,,,,,,,,,,,,,,,,,,,659.4722229666077,None,['5'],0,[2.7488529374822974],659.4722229666077,None,659.4722229666077,None,659.4722229666077,None,662.3257350292988,None,662.3257350292988,None,,,,,,,,,,,,,,,S6,001,2019_Nov_22_1139,test_final,3.2.4,60.02002121049636,
,,,,,,,,,,,,,,,,,,,,,,,,,,,,,,,,5,0,5,0,4,0,4,0,,,,,,,,,,,,,,,,,,,,,,,,,,,,,,,,,,,,,,,,,,,,,,,,,,,,,,,,,,,,,,,,,,,,,,,,,,,,,,,,,,,,,,,,,,,,,,,,,,,,,,,,,,,,,,,,,,,663.650119537022,None,,,,,,,,,,,,,S6,001,2019_Nov_22_1139,test_final,3.2.4,60.02002121049636,
,,,,,,,,,,,,,,,,,,,,,,,,,,,,,,,,5,0,5,0,,,,,,,,,,,,,,,,,,,,,,,,,,,,,,,,,,,,,,,,,,,,,,,,,,,,,,,,,,,,,,,,,,,,,,,,,,,,,,,,,,,,,,,,,,,,,,,,,,,,,,,,,,,,,,,,,,,,,,,,,jqxtv,"['j', 'q', 'x', 't', 'v']",0,"[1.1657362286932766, 1.6197126880288124, 2.102148141246289, 2.690870399121195, 3.06474325992167, 4.504119269084185]",664.9148857169785,None,664.9148857169785,None,1,JQXTV,664.9148857169785,None,S6,001,2019_Nov_22_1139,test_final,3.2.4,60.02002121049636,
Practice,14,(6/3) + 4 ,6,,,,,,,,,,,,,,,,,,,,,,,,,,,,,6,0,6,0,0,0,0,0,0,0,0,13,,,,,,,,,,,,,,,,,,,,,,,,,,6,,,,,,,,,,,,,,,,,,,,,,,,,,,,,,,,,,,,,,,,,,,,1,,,,,,,,,,,,,,,,,,,,,,,,,,669.9927339786664,None,['6'],0,[3.0320165450684726],669.9927339786664,None,669.9927339786664,None,669.9927339786664,None,673.1496710083447,None,673.1496710083447,None,,,,,,,,,,,,,,,S6,001,2019_Nov_22_1139,test_final,3.2.4,60.02002121049636,
,,,,,,,,,,,,,,,,,,,,,,,,,,,,,,,,6,0,6,0,0,0,0,0,,,,,,,,,,,,,,,,,,,,,,,,,,,,,,,,,,,,,,,,,,,,,,,,,,,,,,,,,,,,,,,,,,,,,,,,,,,,,,,,,,,,,,,,,,,,,,,,,,,,,,,,,,,,,,,,,,,674.4711711108685,None,,,,,,,,,,,,,S6,001,2019_Nov_22_1139,test_final,3.2.4,60.02002121049636,
Practice,4,(4x4) - 14,2,,,,,,,,,,,,,,,,,,,,,,,,,,,,,6,0,6,0,1,0,1,0,0,0,0,3,,,,,,,,,,,,,,,,,,,,,,,,,,2,,,,,,,,,,,,,,,,,,,,,,,,,,,,,,,,,,,,,,,,,,,,1,,,,,,,,,,,,,,,,,,,,,,,,,,675.7707603122108,None,['2'],0,[1.1717374133877456],675.7707603122108,None,675.7707603122108,None,675.7707603122108,None,677.041260745842,None,677.041260745842,None,,,,,,,,,,,,,,,S6,001,2019_Nov_22_1139,test_final,3.2.4,60.02002121049636,
,,,,,,,,,,,,,,,,,,,,,,,,,,,,,,,,6,0,6,0,1,0,1,0,,,,,,,,,,,,,,,,,,,,,,,,,,,,,,,,,,,,,,,,,,,,,,,,,,,,,,,,,,,,,,,,,,,,,,,,,,,,,,,,,,,,,,,,,,,,,,,,,,,,,,,,,,,,,,,,,,,678.3519168244675,None,,,,,,,,,,,,,S6,001,2019_Nov_22_1139,test_final,3.2.4,60.02002121049636,
Practice,12,(8/2) + 4,8,,,,,,,,,,,,,,,,,,,,,,,,,,,,,6,0,6,0,2,0,2,0,0,0,0,11,,,,,,,,,,,,,,,,,,,,,,,,,,8,,,,,,,,,,,,,,,,,,,,,,,,,,,,,,,,,,,,,,,,,,,,1,,,,,,,,,,,,,,,,,,,,,,,,,,679.6672221552581,None,['8'],0,[2.995060191489756],679.6672221552581,None,679.6672221552581,None,679.6672221552581,None,682.7493282649666,None,682.7493282649666,None,,,,,,,,,,,,,,,S6,001,2019_Nov_22_1139,test_final,3.2.4,60.02002121049636,
,,,,,,,,,,,,,,,,,,,,,,,,,,,,,,,,6,0,6,0,2,0,2,0,,,,,,,,,,,,,,,,,,,,,,,,,,,,,,,,,,,,,,,,,,,,,,,,,,,,,,,,,,,,,,,,,,,,,,,,,,,,,,,,,,,,,,,,,,,,,,,,,,,,,,,,,,,,,,,,,,,684.0620584352873,None,,,,,,,,,,,,,S6,001,2019_Nov_22_1139,test_final,3.2.4,60.02002121049636,
Practice,6,(2x6) - 8,4,,,,,,,,,,,,,,,,,,,,,,,,,,,,,6,0,6,0,3,0,3,0,0,0,0,5,,,,,,,,,,,,,,,,,,,,,,,,,,4,,,,,,,,,,,,,,,,,,,,,,,,,,,,,,,,,,,,,,,,,,,,1,,,,,,,,,,,,,,,,,,,,,,,,,,685.3611793620512,None,['4'],0,[2.4012207593768835],685.3611793620512,None,685.3611793620512,None,685.3611793620512,None,687.8638990949839,None,687.8638990949839,None,,,,,,,,,,,,,,,S6,001,2019_Nov_22_1139,test_final,3.2.4,60.02002121049636,
,,,,,,,,,,,,,,,,,,,,,,,,,,,,,,,,6,0,6,0,3,0,3,0,,,,,,,,,,,,,,,,,,,,,,,,,,,,,,,,,,,,,,,,,,,,,,,,,,,,,,,,,,,,,,,,,,,,,,,,,,,,,,,,,,,,,,,,,,,,,,,,,,,,,,,,,,,,,,,,,,,689.189178543631,None,,,,,,,,,,,,,S6,001,2019_Nov_22_1139,test_final,3.2.4,60.02002121049636,
Practice,10,(8/4) + 3,5,,,,,,,,,,,,,,,,,,,,,,,,,,,,,6,0,6,0,4,0,4,0,0,0,0,9,,,,,,,,,,,,,,,,,,,,,,,,,,7,,,,,,,,,,,,,,,,,,,,,,,,,,,,,,,,,,,,,,,,,,,,0,,,,,,,,,,,,,,,,,,,,,,,,,,690.4885745113716,None,['7'],0,[3.7169164367951453],690.4885745113716,None,690.4885745113716,None,690.4885745113716,None,694.3095340519212,None,694.3095340519212,None,,,,,,,,,,,,,,,S6,001,2019_Nov_22_1139,test_final,3.2.4,60.02002121049636,
Practice,7,(4x6) - 17,7,,,,,,,,,,,,,,,,,,,,,,,,,,,,,6,0,6,0,4,0,4,0,0,1,1,6,,,,,,,,,,,,,,,,,,,,,,,,,,7,,,,,,,,,,,,,,,,,,,,,,,,,,,,,,,,,,,,,,,,,,,,1,,,,,,,,,,,,,,,,,,,,,,,,,,695.6491170474328,None,['7'],0,[2.199119868222624],695.6491170474328,None,695.6491170474328,None,695.6491170474328,None,697.9066676301882,None,697.9066676301882,None,,,,,,,,,,,,,,,S6,001,2019_Nov_22_1139,test_final,3.2.4,60.02002121049636,
,,,,,,,,,,,,,,,,,,,,,,,,,,,,,,,,6,0,6,0,4,0,4,0,,,,,,,,,,,,,,,,,,,,,,,,,,,,,,,,,,,,,,,,,,,,,,,,,,,,,,,,,,,,,,,,,,,,,,,,,,,,,,,,,,,,,,,,,,,,,,,,,,,,,,,,,,,,,,,,,,,699.2122908099554,None,,,,,,,,,,,,,S6,001,2019_Nov_22_1139,test_final,3.2.4,60.02002121049636,
Practice,14,(6/3) + 4 ,6,,,,,,,,,,,,,,,,,,,,,,,,,,,,,6,0,6,0,5,0,5,0,0,0,0,13,,,,,,,,,,,,,,,,,,,,,,,,,,6,,,,,,,,,,,,,,,,,,,,,,,,,,,,,,,,,,,,,,,,,,,,1,,,,,,,,,,,,,,,,,,,,,,,,,,700.5267480975017,None,['6'],0,[2.725079515017569],700.5267480975017,None,700.5267480975017,None,700.5267480975017,None,703.3373191957362,None,703.3373191957362,None,,,,,,,,,,,,,,,S6,001,2019_Nov_22_1139,test_final,3.2.4,60.02002121049636,
,,,,,,,,,,,,,,,,,,,,,,,,,,,,,,,,6,0,6,0,5,0,5,0,,,,,,,,,,,,,,,,,,,,,,,,,,,,,,,,,,,,,,,,,,,,,,,,,,,,,,,,,,,,,,,,,,,,,,,,,,,,,,,,,,,,,,,,,,,,,,,,,,,,,,,,,,,,,,,,,,,704.6553382650018,None,,,,,,,,,,,,,S6,001,2019_Nov_22_1139,test_final,3.2.4,60.02002121049636,
,,,,,,,,,,,,,,,,,,,,,,,,,,,,,,,,6,0,6,0,,,,,,,,,,,,,,,,,,,,,,,,,,,,,,,,,,,,,,,,,,,,,,,,,,,,,,,,,,,,,,,,,,,,,,,,,,,,,,,,,,,,,,,,,,,,,,,,,,,,,,,,,,,,,,,,,,,,,,,,,trkhzk,"['t', 'r', 'k', 'h', 'z', 'k']",0,"[0.8605957813560963, 1.6218065260909498, 2.576014654710889, 2.993360931519419, 3.6114268987439573, 4.801216880325228, 5.1097801784053445]",705.9208770282567,None,705.9208770282567,None,0,TRKZHV,705.9208770282567,None,S6,001,2019_Nov_22_1139,test_final,3.2.4,60.02002121049636,
Practice,13,(3x8) - 19 ,5,,,,,,,,,,,,,,,,,,,,,,,,,,,,,7,0,7,0,0,0,0,0,0,0,0,12,,,,,,,,,,,,,,,,,,,,,,,,,,5,,,,,,,,,,,,,,,,,,,,,,,,,,,,,,,,,,,,,,,,,,,,1,,,,,,,,,,,,,,,,,,,,,,,,,,711.5814269692637,None,['5'],0,[3.09128824993968],711.5814269692637,None,711.5814269692637,None,711.5814269692637,None,714.7799346954562,None,714.7799346954562,None,,,,,,,,,,,,,,,S6,001,2019_Nov_22_1139,test_final,3.2.4,60.02002121049636,
,,,,,,,,,,,,,,,,,,,,,,,,,,,,,,,,7,0,7,0,0,0,0,0,,,,,,,,,,,,,,,,,,,,,,,,,,,,,,,,,,,,,,,,,,,,,,,,,,,,,,,,,,,,,,,,,,,,,,,,,,,,,,,,,,,,,,,,,,,,,,,,,,,,,,,,,,,,,,,,,,,716.0932861766778,None,,,,,,,,,,,,,S6,001,2019_Nov_22_1139,test_final,3.2.4,60.02002121049636,
Practice,6,(2x6) - 8,4,,,,,,,,,,,,,,,,,,,,,,,,,,,,,7,0,7,0,1,0,1,0,0,0,0,5,,,,,,,,,,,,,,,,,,,,,,,,,,2,,,,,,,,,,,,,,,,,,,,,,,,,,,,,,,,,,,,,,,,,,,,0,,,,,,,,,,,,,,,,,,,,,,,,,,717.3915728116408,None,['2'],0,[1.421355176717043],717.3915728116408,None,717.3915728116408,None,717.3915728116408,None,719.0415527126752,None,719.0415527126752,None,,,,,,,,,,,,,,,S6,001,2019_Nov_22_1139,test_final,3.2.4,60.02002121049636,
Practice,11,(5x3) - 7,8,,,,,,,,,,,,,,,,,,,,,,,,,,,,,7,0,7,0,1,0,1,0,0,1,1,10,,,,,,,,,,,,,,,,,,,,,,,,,,,,,,,,,,,,,,,,,,,,,,,,,,,,,,,,,,,,,,,,,,,,,,0,,,,,,,,,,,,,,,,,,,,,,,,,,720.3883728142828,None,None,0,,720.3883728142828,None,720.3883728142828,None,720.3883728142828,None,725.3714902289212,None,725.3714902289212,None,,,,,,,,,,,,,,,S6,001,2019_Nov_22_1139,test_final,3.2.4,60.02002121049636,
Practice,13,(3x8) - 19 ,5,,,,,,,,,,,,,,,,,,,,,,,,,,,,,7,0,7,0,1,0,1,0,0,2,2,12,,,,,,,,,,,,,,,,,,,,,,,,,,5,,,,,,,,,,,,,,,,,,,,,,,,,,,,,,,,,,,,,,,,,,,,1,,,,,,,,,,,,,,,,,,,,,,,,,,726.6987594938837,None,['5'],0,[1.6039676438085735],726.6987594938837,None,726.6987594938837,None,726.6987594938837,None,728.3686231020838,None,728.3686231020838,None,,,,,,,,,,,,,,,S6,001,2019_Nov_22_1139,test_final,3.2.4,60.02002121049636,
,,,,,,,,,,,,,,,,,,,,,,,,,,,,,,,,7,0,7,0,1,0,1,0,,,,,,,,,,,,,,,,,,,,,,,,,,,,,,,,,,,,,,,,,,,,,,,,,,,,,,,,,,,,,,,,,,,,,,,,,,,,,,,,,,,,,,,,,,,,,,,,,,,,,,,,,,,,,,,,,,,729.6781395231374,None,,,,,,,,,,,,,S6,001,2019_Nov_22_1139,test_final,3.2.4,60.02002121049636,
Practice,15,(9/3) - 2,1,,,,,,,,,,,,,,,,,,,,,,,,,,,,,7,0,7,0,2,0,2,0,0,0,0,14,,,,,,,,,,,,,,,,,,,,,,,,,,1,,,,,,,,,,,,,,,,,,,,,,,,,,,,,,,,,,,,,,,,,,,,1,,,,,,,,,,,,,,,,,,,,,,,,,,730.9928422318771,None,['1'],0,[2.9017006708309054],730.9928422318771,None,730.9928422318771,None,730.9928422318771,None,734.1276536174119,None,734.1276536174119,None,,,,,,,,,,,,,,,S6,001,2019_Nov_22_1139,test_final,3.2.4,60.02002121049636,
,,,,,,,,,,,,,,,,,,,,,,,,,,,,,,,,7,0,7,0,2,0,2,0,,,,,,,,,,,,,,,,,,,,,,,,,,,,,,,,,,,,,,,,,,,,,,,,,,,,,,,,,,,,,,,,,,,,,,,,,,,,,,,,,,,,,,,,,,,,,,,,,,,,,,,,,,,,,,,,,,,735.4881464345381,None,,,,,,,,,,,,,S6,001,2019_Nov_22_1139,test_final,3.2.4,60.02002121049636,
Practice,15,(9/3) - 2,1,,,,,,,,,,,,,,,,,,,,,,,,,,,,,7,0,7,0,3,0,3,0,0,0,0,14,,,,,,,,,,,,,,,,,,,,,,,,,,1,,,,,,,,,,,,,,,,,,,,,,,,,,,,,,,,,,,,,,,,,,,,1,,,,,,,,,,,,,,,,,,,,,,,,,,736.7373012122698,None,['1'],0,[2.391915555577725],736.7373012122698,None,736.7373012122698,None,736.7373012122698,None,739.3462612042204,None,739.3462612042204,None,,,,,,,,,,,,,,,S6,001,2019_Nov_22_1139,test_final,3.2.4,60.02002121049636,
,,,,,,,,,,,,,,,,,,,,,,,,,,,,,,,,7,0,7,0,3,0,3,0,,,,,,,,,,,,,,,,,,,,,,,,,,,,,,,,,,,,,,,,,,,,,,,,,,,,,,,,,,,,,,,,,,,,,,,,,,,,,,,,,,,,,,,,,,,,,,,,,,,,,,,,,,,,,,,,,,,740.699534193147,None,,,,,,,,,,,,,S6,001,2019_Nov_22_1139,test_final,3.2.4,60.02002121049636,
Practice,4,(4x4) - 14,2,,,,,,,,,,,,,,,,,,,,,,,,,,,,,7,0,7,0,4,0,4,0,0,0,0,3,,,,,,,,,,,,,,,,,,,,,,,,,,2,,,,,,,,,,,,,,,,,,,,,,,,,,,,,,,,,,,,,,,,,,,,1,,,,,,,,,,,,,,,,,,,,,,,,,,741.9655151376501,None,['2'],0,[2.5363100063987076],741.9655151376501,None,741.9655151376501,None,741.9655151376501,None,744.7432886450551,None,744.7432886450551,None,,,,,,,,,,,,,,,S6,001,2019_Nov_22_1139,test_final,3.2.4,60.02002121049636,
,,,,,,,,,,,,,,,,,,,,,,,,,,,,,,,,7,0,7,0,4,0,4,0,,,,,,,,,,,,,,,,,,,,,,,,,,,,,,,,,,,,,,,,,,,,,,,,,,,,,,,,,,,,,,,,,,,,,,,,,,,,,,,,,,,,,,,,,,,,,,,,,,,,,,,,,,,,,,,,,,,746.1105287838727,None,,,,,,,,,,,,,S6,001,2019_Nov_22_1139,test_final,3.2.4,60.02002121049636,
Practice,11,(5x3) - 7,8,,,,,,,,,,,,,,,,,,,,,,,,,,,,,7,0,7,0,5,0,5,0,0,0,0,10,,,,,,,,,,,,,,,,,,,,,,,,,,8,,,,,,,,,,,,,,,,,,,,,,,,,,,,,,,,,,,,,,,,,,,,1,,,,,,,,,,,,,,,,,,,,,,,,,,747.3588929949328,None,['8'],0,[2.978217804338783],747.3588929949328,None,747.3588929949328,None,747.3588929949328,None,750.5582367749885,None,750.5582367749885,None,,,,,,,,,,,,,,,S6,001,2019_Nov_22_1139,test_final,3.2.4,60.02002121049636,
,,,,,,,,,,,,,,,,,,,,,,,,,,,,,,,,7,0,7,0,5,0,5,0,,,,,,,,,,,,,,,,,,,,,,,,,,,,,,,,,,,,,,,,,,,,,,,,,,,,,,,,,,,,,,,,,,,,,,,,,,,,,,,,,,,,,,,,,,,,,,,,,,,,,,,,,,,,,,,,,,,751.9206693368033,None,,,,,,,,,,,,,S6,001,2019_Nov_22_1139,test_final,3.2.4,60.02002121049636,
,,,,,,,,,,,,,,,,,,,,,,,,,,,,,,,,7,0,7,0,,,,,,,,,,,,,,,,,,,,,,,,,,,,,,,,,,,,,,,,,,,,,,,,,,,,,,,,,,,,,,,,,,,,,,,,,,,,,,,,,,,,,,,,,,,,,,,,,,,,,,,,,,,,,,,,,,,,,,,,,jqtzsk,"['j', 'q', 't', 'z', 's', 'k']",0,"[1.0686647109687328, 1.3931747497990727, 1.8229246740229428, 2.164512295741588, 3.1346791540272534, 4.224388386122882, 4.506648941896856]",753.1525074578822,None,753.1525074578822,None,0,NQTZSX,753.1525074578822,None,S6,001,2019_Nov_22_1139,test_final,3.2.4,60.02002121049636,
